TIMESTAMP,ACCEL_X,ACCEL_Y,ACCEL_Z,GYRO_X,GYRO_Y,GYRO_Z,ACTIVITY_ID
2021-03-07 10:55:35.366,-0.8188419342041016,4.452153205871582,9.330488204956056,0.21199321746826166,0.22264671325683594,0.08948421478271484,102
2021-03-07 10:55:35.466,-0.7984905242919922,4.0451269149780265,9.056344032287598,0.07244014739990234,0.20560169219970706,-0.02769756317138672,102
2021-03-07 10:55:35.566,-0.8966550827026367,4.246245384216309,8.47453498840332,-0.07776641845703125,0.08415794372558594,-0.15127182006835938,102
2021-03-07 10:55:35.666,-1.0355234146118164,4.571866989135742,8.407495498657228,-0.16938209533691406,-0.11824703216552734,-0.3387641906738281,102
2021-03-07 10:55:35.766,-0.6332855224609375,4.581443786621094,7.002056121826173,-0.7776660919189453,-0.43996715545654297,-0.9640932083129884,102
2021-03-07 10:55:35.866,1.8100709915161133,3.8799219131469727,5.5523223876953125,-3.2406330108642583,-1.4775667190551758,-2.271212577819824,102
2021-03-07 10:55:35.966,3.4070520401000977,-0.4956140518188477,6.022797584533691,-3.8648967742919917,-1.3465347290039062,-3.6901884078979488,102
2021-03-07 10:55:36.066,8.809733390808105,-2.658841133117676,3.3471956253051762,-4.835382461547852,-1.0589046478271484,-4.7395057678222665,102
2021-03-07 10:55:36.166,11.421887397766113,-6.286168098449707,6.098217010498048,-3.4654102325439453,-1.19952392578125,-4.754419326782227,102
2021-03-07 10:55:36.266,11.945035934448242,-4.816082954406738,4.911853790283203,-0.786189079284668,-0.2684545516967773,-4.0981969833374015,102
2021-03-07 10:55:36.366,10.09426212310791,-4.832842826843262,3.972101211547852,-1.9004888534545896,0.09587669372558594,-2.701592445373535,102
2021-03-07 10:55:36.466,8.646923065185549,-4.811294555664063,3.3878984451293945,-1.5468111038208008,-0.08522319793701172,-1.220829963684082,102
2021-03-07 10:55:36.566,8.493688583374022,-4.829251289367676,4.885517120361328,-0.5454311370849609,-0.34835147857666016,-0.1619243621826172,102
2021-03-07 10:55:36.666,11.860039710998535,-3.8380222320556636,6.5435523986816415,1.6405563354492188,-0.20453643798828125,1.8024816513061523,102
2021-03-07 10:55:36.766,10.790995597839355,0.4980087280273438,4.544332504272461,1.7715883255004885,0.8820657730102539,3.2523508071899414,102
2021-03-07 10:55:36.866,9.390344619750977,-1.0043973922729492,2.285334587097168,0.2332992553710937,0.8937835693359375,2.5780181884765625,102
2021-03-07 10:55:36.966,7.053532600402832,-0.735041618347168,1.3982563018798828,0.5859127044677734,0.449554443359375,1.972929000854492,102
2021-03-07 10:55:37.066,6.317293167114258,-0.3316068649291992,1.647260665893555,0.09694194793701172,-0.23862648010253906,0.8277349472045898,102
2021-03-07 10:55:37.166,7.588653564453125,-1.485647201538086,3.429798126220703,-0.5475625991821289,-1.0088357925415041,-1.0770149230957031,102
2021-03-07 10:55:37.266,12.130592346191404,-3.632114410400391,7.449785232543945,-0.8714122772216797,-1.0897979736328125,-2.9189128875732417,102
2021-03-07 10:55:37.366,9.211971282958984,-2.770174980163574,5.439791679382324,1.130279541015625,0.21625518798828125,-1.994235038757324,102
2021-03-07 10:55:37.466,7.619778633117676,-2.0471048355102544,3.128119468688965,-1.5223093032836914,0.5102767944335938,-0.6988344192504883,102
2021-03-07 10:55:37.566,5.616968154907227,-3.091008186340332,2.2685747146606445,-1.151585578918457,0.21092796325683594,0.322784423828125,102
2021-03-07 10:55:37.666,6.927833557128906,-1.987247467041016,2.964111328125,0.04367637634277344,-0.5454311370849609,0.012783050537109377,102
2021-03-07 10:55:37.766,9.101835250854492,-2.682784080505371,8.199193000793457,0.1949491500854492,-0.5614109039306641,-0.232234001159668,102
2021-03-07 10:55:37.866,11.88637638092041,-2.8216524124145512,6.3292646408081055,0.9214811325073242,0.1608591079711914,0.13955307006835938,102
2021-03-07 10:55:37.966,7.950188636779785,-0.7158880233764648,4.170825958251953,1.051447868347168,0.6551570892333984,0.7691440582275391,102
2021-03-07 10:55:38.066,8.601431846618652,-1.8735198974609373,2.5714502334594727,0.2567358016967773,0.7446422576904297,0.9268074035644532,102
2021-03-07 10:55:38.166,7.118178367614746,-1.421001434326172,1.6316976547241209,0.4580774307250977,0.2546052932739258,1.3571882247924805,102
2021-03-07 10:55:38.266,7.127755165100098,-0.519556999206543,1.91422176361084,0.19921016693115234,-0.1970796585083008,1.172891616821289,102
2021-03-07 10:55:38.366,7.8208980560302725,-1.043903350830078,2.3332204818725586,-0.5369091033935547,-0.8394536972045898,0.020239830017089844,102
2021-03-07 10:55:38.466,11.643357276916506,-2.365543365478516,7.592245101928711,-0.33237171173095703,-1.4402809143066406,-1.4637174606323242,102
2021-03-07 10:55:38.566,8.312921524047853,-3.0096025466918945,4.614964485168457,1.3827552795410156,-0.11505126953125,-1.0482521057128906,102
2021-03-07 10:55:38.666,8.508054733276367,0.046688079833984375,4.601795196533203,-0.6413078308105469,0.7925806045532227,-0.2823028564453125,102
2021-03-07 10:55:38.766,6.681222915649414,-2.540325164794922,2.4541311264038086,-2.1242017745971684,0.6338510513305664,0.4676647186279297,102
2021-03-07 10:55:38.866,6.307716369628906,-0.6249055862426758,3.685985565185547,0.02450180053710937,0.06391716003417969,0.26312828063964844,102
2021-03-07 10:55:38.966,6.472921371459961,-0.8727130889892578,4.296525955200194,-0.4591426849365234,-0.4570121765136719,-0.5081462860107422,102
2021-03-07 10:55:39.066,9.319713592529297,-1.7705659866333008,6.1724395751953125,-0.6018924713134766,-0.31319713592529297,-1.0599699020385742,102
2021-03-07 10:55:39.166,11.56674098968506,-3.538737297058105,6.342432975769043,0.3962898254394531,0.3877677917480469,-0.7350540161132812,102
2021-03-07 10:55:39.266,8.195601463317871,-1.909433364868164,3.9469614028930655,0.5113420486450195,0.6849851608276367,0.2535400390625,102
2021-03-07 10:55:39.366,7.312114715576173,-1.7490167617797852,2.5187768936157227,0.012783050537109377,0.6253290176391602,0.8554325103759766,102
2021-03-07 10:55:39.466,6.885933876037598,-1.6616258621215818,2.000415802001953,0.6274595260620117,0.22371196746826166,1.1856746673583984,102
2021-03-07 10:55:39.566,7.437813758850098,-0.646453857421875,2.132101058959961,0.0628519058227539,-0.14594554901123047,0.8394536972045898,102
2021-03-07 10:55:39.666,8.528406143188478,-1.2821340560913086,3.0431222915649414,-0.7489032745361328,-0.9097633361816406,0.007456779479980469,102
2021-03-07 10:55:39.766,10.758672714233398,-2.996434211730957,8.99768352508545,-0.16938209533691406,-1.0013790130615234,-0.9491786956787108,102
2021-03-07 10:55:39.866,8.707976341247559,-2.0087957382202153,4.829251289367676,0.831995964050293,0.4815139770507813,-0.5859127044677734,102
2021-03-07 10:55:39.966,8.202784538269043,-0.062251091003417976,3.948158264160156,-1.5745086669921875,0.965158462524414,0.04474163055419922,102
2021-03-07 10:55:40.066,5.3009233474731445,-2.2350549697875977,2.0542869567871094,-1.560659408569336,0.4868402481079102,0.4687299728393554,102
2021-03-07 10:55:40.166,6.2741966247558585,-1.4389581680297852,3.6225376129150386,0.30893516540527344,-0.40055084228515625,-0.6636791229248047,102
2021-03-07 10:55:40.266,8.728327751159668,-1.6257123947143557,5.502042770385742,0.2716503143310547,-0.5113420486450195,-1.0173578262329102,102
2021-03-07 10:55:40.366,13.844893455505373,-2.9138317108154297,9.33647346496582,-1.0237503051757812,-0.13103103637695312,-1.1111040115356443,102
2021-03-07 10:55:40.466,7.0379695892333975,-2.2865314483642583,3.7422504425048833,0.3909635543823242,0.33663368225097656,0.09587669372558594,102
2021-03-07 10:55:40.566,8.481718063354492,-2.6384906768798833,3.1400909423828125,1.4274978637695312,0.6551570892333984,0.2247772216796875,102
2021-03-07 10:55:40.666,7.526402473449707,-1.543109893798828,2.9748859405517583,0.1725778579711914,0.5944347381591797,0.9619626998901368,102
2021-03-07 10:55:40.766,7.607807159423827,-1.175588607788086,2.231463432312012,0.25140953063964844,0.3398294448852539,1.7918291091918943,102
2021-03-07 10:55:40.866,7.9346256256103525,-0.19633007049560547,2.5271568298339844,-0.4634037017822266,-0.061786651611328125,1.1835441589355469,102
2021-03-07 10:55:40.966,9.797371864318848,-1.7490167617797852,4.6808061599731445,-0.6924428939819336,-0.8415842056274414,-0.5912389755249023,102
2021-03-07 10:55:41.066,8.153701782226562,-2.448145866394043,6.49566650390625,1.0535783767700195,-0.5198640823364258,-0.8895225524902344,102
2021-03-07 10:55:41.166,8.322498321533201,-0.6811704635620117,4.576655387878418,-0.3004131317138672,0.1896219253540039,-0.8021678924560547,102
2021-03-07 10:55:41.266,6.189199447631836,-2.2206897735595703,3.5722570419311523,-0.5156030654907227,-0.4303798675537109,-0.588043212890625,102
2021-03-07 10:55:41.366,7.909485816955566,-1.2186851501464844,3.4429664611816406,0.4751214981079102,0.6125450134277344,1.226156234741211,102
2021-03-07 10:55:41.466,7.18521785736084,-1.795705795288086,2.9030580520629883,0.4751214981079102,0.6125450134277344,1.226156234741211,102
2021-03-07 10:55:41.566,7.18521785736084,-1.795705795288086,2.9030580520629883,0.4751214981079102,0.6125450134277344,1.226156234741211,102
2021-03-07 10:55:41.666,7.18521785736084,-1.795705795288086,2.9030580520629883,0.4751214981079102,0.6125450134277344,1.226156234741211,102
2021-03-07 10:55:41.766,7.18521785736084,-1.795705795288086,2.9030580520629883,0.4751214981079102,0.6125450134277344,1.226156234741211,102
2021-03-07 10:55:41.866,7.18521785736084,-1.795705795288086,2.9030580520629883,0.4751214981079102,0.6125450134277344,1.226156234741211,102
2021-03-07 10:55:41.966,7.18521785736084,-1.795705795288086,2.9030580520629883,-0.009587287902832031,0.7062911987304688,1.0834064483642578,102
2021-03-07 10:55:42.066,7.770618438720702,-0.1580219268798828,3.4980344772338867,-0.6274595260620117,0.0809621810913086,0.07670116424560547,102
2021-03-07 10:55:42.166,7.99448299407959,-0.6608190536499023,3.8033046722412114,-0.4783182144165039,-0.6221332550048828,-1.2613115310668943,102
2021-03-07 10:55:42.266,10.289395332336426,-0.8583469390869141,4.5886268615722665,0.22690773010253906,-0.678593635559082,-0.7627525329589844,102
2021-03-07 10:55:42.366,7.300143241882324,-1.5395183563232422,4.2163171768188485,-0.8256044387817383,-0.4772529602050781,-0.4953622817993164,102
2021-03-07 10:55:42.466,8.320104598999022,-0.956512451171875,3.952946662902832,0.0980072021484375,-0.6562223434448242,-0.2301034927368164,102
2021-03-07 10:55:42.566,6.690800666809082,-2.239843368530273,4.473701477050781,0.04474163055419922,-0.43996715545654297,-0.22158145904541016,102
2021-03-07 10:55:42.666,7.0990238189697275,-0.8332071304321289,6.271801948547362,0.22903823852539065,-0.09694194793701172,-0.4900360107421875,102
2021-03-07 10:55:42.766,8.28419017791748,-1.8088741302490237,4.648484230041504,-0.03941535949707031,0.1502065658569336,-0.3100013732910156,102
2021-03-07 10:55:42.866,12.228757858276367,-2.743838310241699,7.688015937805176,0.7350540161132812,0.5081462860107422,0.9097633361816406,102
2021-03-07 10:55:42.966,7.654496192932129,-1.4940271377563477,3.9661159515380864,0.9694194793701172,0.8266696929931641,0.874608039855957,102
2021-03-07 10:55:43.066,8.965361595153809,-1.5299406051635742,3.0203771591186523,-0.28549957275390625,0.6338510513305664,1.0621004104614258,102
2021-03-07 10:55:43.166,7.267820358276367,-1.2522048950195312,2.4876508712768555,0.4953622817993164,0.413334846496582,1.237874984741211,102
2021-03-07 10:55:43.266,8.335666656494139,-0.7960958480834961,2.5475082397460938,-1.0961904525756836,-0.06498241424560547,0.6189374923706055,102
2021-03-07 10:55:43.366,7.6628761291503915,0.061053276062011726,2.8228492736816406,-0.6189374923706055,-0.986464500427246,-1.5659856796264648,102
2021-03-07 10:55:43.466,10.139753341674805,-1.3204421997070312,3.6069746017456055,1.2144384384155271,-0.5976314544677734,-1.5691814422607422,102
2021-03-07 10:55:43.566,8.225530624389647,-3.1113595962524414,6.800936698913574,-0.8628902435302734,0.0809621810913086,-0.7915153503417969,102
2021-03-07 10:55:43.666,7.97413158416748,-0.20710468292236328,4.545530319213867,-1.9452314376831052,0.334503173828125,-0.4602079391479492,102
2021-03-07 10:55:43.766,6.3316593170166025,-3.1125564575195312,3.0802335739135738,0.5656719207763672,-0.19921016693115234,-0.15659809112548828,102
2021-03-07 10:55:43.866,7.125361442565918,-1.7801427841186523,3.6057767868041988,0.026632308959960938,-0.4740562438964844,0.026632308959960938,102
2021-03-07 10:55:43.966,9.323305130004883,-1.9405593872070312,5.87315559387207,0.34302520751953125,-0.010652542114257812,0.3472862243652344,102
2021-03-07 10:55:44.066,11.268653869628904,-3.32205581665039,6.844034194946289,1.139866828918457,0.6871156692504883,0.8032331466674805,102
2021-03-07 10:55:44.166,8.226727485656737,-0.9648923873901368,4.010409355163573,0.13529205322265625,0.9736804962158204,0.738250732421875,102
2021-03-07 10:55:44.266,8.336864471435549,-1.2426280975341797,2.656447410583496,0.013848304748535156,0.461273193359375,1.0024442672729492,102
2021-03-07 10:55:44.366,6.650097846984862,-1.5323352813720703,1.4269876480102541,0.5081462860107422,0.12037849426269533,0.7084217071533203,102
2021-03-07 10:55:44.466,7.383942604064941,-0.4513206481933594,2.22188663482666,-0.7947111129760742,-0.4847097396850586,-0.4389019012451172,102
2021-03-07 10:55:44.566,9.194014549255373,-0.8403902053833008,3.3735322952270512,-0.18109989166259768,-1.1377363204956057,-1.2815513610839844,102
2021-03-07 10:55:44.666,10.3157320022583,-2.1380872726440434,5.437397003173828,0.8373231887817383,-0.4261178970336914,-0.2780418395996094,102
2021-03-07 10:55:44.766,8.360806465148926,-1.4916324615478516,5.931815147399902,-1.2506580352783203,0.34941673278808594,-0.07030868530273438,102
2021-03-07 10:55:44.866,7.18521785736084,-0.5830049514770508,3.9685096740722656,-0.6317205429077148,0.3675270080566406,-0.04900360107421875,102
2021-03-07 10:55:44.966,6.308913230895996,-1.6628236770629885,3.5052175521850586,-0.4335756301879883,-0.007456779479980469,-0.4676647186279297,102
2021-03-07 10:55:45.066,6.990084648132324,-1.270162582397461,4.229485511779785,-0.11505126953125,-0.3462209701538086,-0.8927183151245117,102
2021-03-07 10:55:45.166,9.626180648803713,-1.632894515991211,5.110578536987305,0.6061534881591797,-0.1438150405883789,-0.6018924713134766,102
2021-03-07 10:55:45.266,11.569134712219238,-3.556694984436035,6.984098434448242,1.1558465957641602,0.4378366470336914,0.8234739303588867,102
2021-03-07 10:55:45.366,8.140533447265625,-1.2677679061889648,3.6943655014038086,0.3100013732910156,0.7233362197875977,1.1494550704956057,102
2021-03-07 10:55:45.466,8.393129348754883,-0.9696807861328124,2.973689079284668,0.007456779479980469,0.2940216064453125,1.2985963821411133,102
2021-03-07 10:55:45.566,6.49566650390625,-1.5682497024536133,1.8675336837768557,0.8948488235473633,-0.08202743530273438,0.7840576171875,102
2021-03-07 10:55:45.666,7.267820358276367,-0.7553930282592773,1.8842935562133791,-0.7531642913818359,-0.3930940628051758,-0.061786651611328125,102
2021-03-07 10:55:45.766,10.00687026977539,-0.5399084091186523,2.745035171508789,-0.28549957275390625,-1.1228227615356443,-0.6178712844848633,102
2021-03-07 10:55:45.866,10.684450149536133,-2.637292861938477,6.696785926818848,0.817082405090332,-0.22690773010253906,0.0021305084228515625,102
2021-03-07 10:55:45.966,8.687624931335451,-0.6261024475097656,5.387117385864258,-1.699148178100586,0.7584905624389648,-0.2876300811767578,102
2021-03-07 10:55:46.066,7.01402759552002,-0.35315513610839844,3.6740140914916988,-0.6018924713134766,0.5624761581420898,-0.3036088943481445,102
2021-03-07 10:55:46.166,5.660064697265625,-1.8028879165649412,3.1652307510375977,-0.013848304748535156,-0.07030868530273438,-0.7041606903076172,102
2021-03-07 10:55:46.266,7.194794654846191,-1.136082649230957,3.46331787109375,-0.6839199066162109,-0.4112043380737305,-0.912959098815918,102
2021-03-07 10:55:46.366,9.007261276245117,-1.7837343215942385,4.907065391540527,0.3057394027709961,-0.06604766845703125,-0.8479757308959961,102
2021-03-07 10:55:46.466,10.802967071533203,-4.236668586730957,6.578269004821777,1.0834064483642578,0.40694332122802734,0.3387641906738281,102
2021-03-07 10:55:46.566,8.92465877532959,-1.8771104812622068,4.076251983642578,-0.1789693832397461,0.4165306091308594,1.1643686294555664,102
2021-03-07 10:55:46.666,7.619778633117676,-1.3695249557495115,2.989251136779785,0.6178712844848633,0.11718177795410155,1.4306936264038086,102
2021-03-07 10:55:46.766,6.097020149230957,-1.7226800918579102,1.8675336837768557,0.5986967086791992,-0.058590888977050774,0.4900360107421875,102
2021-03-07 10:55:46.866,8.493688583374022,-0.7518014907836914,2.327234268188477,-1.1739568710327148,-0.5273218154907227,-0.07350540161132812,102
2021-03-07 10:55:46.966,9.660898208618164,-0.922992706298828,3.1628360748291016,0.4452934265136719,-0.6327857971191406,-0.5251913070678711,102
2021-03-07 10:55:47.066,11.001691818237305,-2.377513885498047,7.610201835632324,0.5379743576049805,0.2535400390625,0.013848304748535156,102
2021-03-07 10:55:47.166,7.2989463806152335,-0.3842802047729492,3.818867683410645,-0.2418222427368164,-0.5219945907592773,-1.4274978637695312,102
2021-03-07 10:55:47.266,7.830474853515625,-0.4597005844116211,2.7797527313232417,-0.2418222427368164,-0.5219945907592773,-1.4274978637695312,102
2021-03-07 10:55:47.366,9.176057815551758,-1.485647201538086,4.923825263977051,0.831995964050293,0.5976314544677734,0.6604833602905273,102
2021-03-07 10:55:47.466,8.363201141357424,-2.00161361694336,2.444554328918457,0.8415842056274414,0.6008272171020508,0.6711368560791016,102
2021-03-07 10:55:47.566,8.419466972351074,-2.0902013778686523,2.5858163833618164,0.8277349472045898,0.6008272171020508,0.678593635559082,102
2021-03-07 10:55:47.666,8.346441268920897,-2.1344957351684566,2.7570066452026367,0.7829923629760742,0.5923042297363281,0.6860504150390625,102
2021-03-07 10:55:47.766,8.148913383483888,-2.10456657409668,3.0096025466918945,0.7254667282104492,0.5763254165649414,0.6935081481933594,102
2021-03-07 10:55:47.866,7.8771629333496085,-2.0064020156860347,3.2442417144775386,0.5326480865478516,0.4772529602050781,0.7073564529418945,102
2021-03-07 10:55:47.966,7.308523178100586,-1.697540283203125,2.554690361022949,1.0375986099243164,0.2428874969482422,1.1483898162841797,102
2021-03-07 10:55:48.066,7.694001197814941,-1.6149377822875977,1.7466230392456057,-0.1043987274169922,0.0021305084228515625,1.2101764678955078,102
2021-03-07 10:55:48.166,8.899518966674805,-0.3806896209716797,2.1979436874389653,-0.621068000793457,-0.8202781677246094,0.19175338745117188,102
2021-03-07 10:55:48.266,10.338478088378906,-1.233051300048828,2.6851787567138667,1.4093875885009766,-1.359318733215332,0.08948421478271484,102
2021-03-07 10:55:48.366,9.04556941986084,-2.595393180847168,6.417853355407715,0.32491493225097656,0.15446758270263672,0.3696575164794922,102
2021-03-07 10:55:48.466,8.988106727600098,0.4166030883789063,4.116954803466797,-1.7513475418090818,1.1430635452270508,-0.3739185333251953,102
2021-03-07 10:55:48.566,6.108991622924805,-1.2869224548339844,2.6408843994140625,-0.2492790222167969,0.184295654296875,-0.8575639724731445,102
2021-03-07 10:55:48.666,6.143708229064941,-1.5658550262451172,1.667612075805664,0.886326789855957,-0.9534406661987304,-1.4008646011352541,102
2021-03-07 10:55:48.766,8.127365112304688,-2.346388816833496,3.4573326110839844,0.9449176788330078,-0.5688676834106445,-0.7936458587646484,102
2021-03-07 10:55:48.866,12.237137794494627,-2.444554328918457,8.397917747497559,1.6512098312377932,0.5017547607421875,0.8927183151245117,102
2021-03-07 10:55:48.966,8.478126525878906,-2.0207672119140625,3.617748260498047,1.024815559387207,1.4370851516723633,0.8841962814331055,102
2021-03-07 10:55:49.066,9.349641799926758,-1.3886785507202148,4.1875858306884775,-1.6821031570434568,1.2964658737182615,1.4498682022094729,102
2021-03-07 10:55:49.166,7.948991775512695,-0.826024055480957,1.4964208602905271,0.32491493225097656,0.4474239349365233,1.6022062301635742,102
2021-03-07 10:55:49.266,8.217150688171388,-1.3970584869384766,0.6284961700439453,-0.6796588897705078,-0.6828546524047852,0.7957763671875,102
2021-03-07 10:55:49.366,8.822901725769043,-0.01197052001953125,1.747819900512695,-0.03621959686279297,-1.8056774139404297,-1.1526508331298828,102
2021-03-07 10:55:49.466,9.799765586853027,-1.4269876480102541,4.2725830078125,0.39522457122802734,-0.3984203338623047,-1.268768310546875,102
2021-03-07 10:55:49.566,9.863214492797852,-2.7115154266357417,5.042342185974121,-2.834754943847656,1.4019298553466797,-0.7094869613647461,102
2021-03-07 10:55:49.666,8.85402774810791,-0.9457378387451172,5.2422637939453125,-2.358567237854004,1.356122970581055,-0.986464500427246,102
2021-03-07 10:55:49.766,6.326870918273926,-1.4353675842285156,1.6616258621215818,-0.3270454406738281,0.05113410949707031,-1.7790451049804688,102
2021-03-07 10:55:49.866,6.472921371459961,-1.9441509246826167,2.7127132415771484,-0.2247772216796875,-0.5976314544677734,-1.8962278366088867,102
2021-03-07 10:55:49.966,10.291789054870604,-2.251814842224121,4.757423400878906,0.1661853790283203,-0.2428874969482422,-0.4484891891479492,102
2021-03-07 10:55:50.066,12.117424011230467,-4.339622497558594,7.9705400466918945,0.8714122772216797,0.31319713592529297,1.1025819778442385,102
2021-03-07 10:55:50.166,7.807729721069336,-1.980064392089844,4.017592430114746,0.449554443359375,0.5113420486450195,1.4924802780151367,102
2021-03-07 10:55:50.266,8.933038711547852,-1.233051300048828,2.7594013214111333,1.1004514694213867,0.3526124954223633,1.7268457412719729,102
2021-03-07 10:55:50.366,7.459362030029298,-1.667612075805664,2.0363302230834956,0.16938209533691406,0.6327857971191406,1.368906021118164,102
2021-03-07 10:55:50.466,8.527209281921388,0.04309654235839844,2.729473114013672,-1.2868785858154297,-0.1906881332397461,0.03941535949707031,102
2021-03-07 10:55:50.566,8.561925888061522,-0.5806112289428711,2.0698499679565434,1.0642309188842771,-1.529766082763672,-1.7098007202148438,102
2021-03-07 10:55:50.666,11.008874893188477,-2.7965126037597656,4.644892692565918,0.738250732421875,-0.4229221343994141,-0.3408946990966797,102
2021-03-07 10:55:50.766,8.134548187255861,0.3292121887207031,4.769394874572754,-1.6107282638549805,0.4197263717651367,-0.2418222427368164,102
2021-03-07 10:55:50.866,7.0415611267089835,-1.4257898330688477,3.03354549407959,-0.15659809112548828,0.4516849517822266,-0.14594554901123047,102
2021-03-07 10:55:50.966,6.008431434631348,-1.9656991958618164,3.4393749237060547,-0.4431629180908203,-0.005326271057128906,-0.3909635543823242,102
2021-03-07 10:55:51.066,6.8907222747802725,-1.29290771484375,3.34360408782959,-0.23969173431396484,-0.33663368225097656,-0.4911012649536133,102
2021-03-07 10:55:51.166,9.541184425354004,-1.98245906829834,5.910266876220702,1.1622381210327148,0.2918910980224609,-0.1853609085083008,102
2021-03-07 10:55:51.266,12.188055038452148,-4.391098976135254,6.161665916442871,1.2634420394897459,0.7297277450561523,0.4431629180908203,102
2021-03-07 10:55:51.366,9.18443775177002,-1.3814964294433594,3.7242937088012695,-0.6402425765991211,0.7531642913818359,0.9896602630615234,102
2021-03-07 10:55:51.466,6.9493818283081055,-1.5909948348999023,2.174000740051269,0.9502439498901368,0.24075698852539065,1.3135108947753906,102
2021-03-07 10:55:51.566,6.4753150939941415,-1.9417562484741209,1.127702713012695,0.3622007369995117,-0.07563591003417969,0.7489032745361328,102
2021-03-07 10:55:51.666,7.777800559997559,-0.6955366134643555,1.923799514770508,-0.8682165145874023,-0.7393159866333008,-0.27378082275390625,102
2021-03-07 10:55:51.766,9.487313270568848,-1.2150936126708984,2.48525619506836,1.2655725479125977,-1.4498682022094729,-0.4804487228393554,102
2021-03-07 10:55:51.866,10.52762508392334,-3.7614049911499023,6.929030418395996,0.7339887619018555,-0.4847097396850586,0.4090738296508789,102
2021-03-07 10:55:51.966,9.171268463134766,0.07661628723144531,6.126948356628418,-1.2985963821411133,0.7691440582275391,-0.012783050537109377,102
2021-03-07 10:55:52.066,7.156486511230469,-0.0035905838012695312,4.210331916809082,-1.1920671463012695,0.7915153503417969,-0.18216514587402344,102
2021-03-07 10:55:52.166,5.958151817321777,-1.2905139923095703,3.007208824157715,-0.243952751159668,0.0287628173828125,-0.8927183151245117,102
2021-03-07 10:55:52.266,7.179232597351074,-1.3407936096191406,2.7713727951049805,-0.10013771057128906,-0.461273193359375,-1.1910018920898438,102
2021-03-07 10:55:52.366,10.151723861694336,-1.8807020187377932,4.887911796569824,-0.5038852691650391,-0.11398601531982422,-0.7094869613647461,102
2021-03-07 10:55:52.466,10.749095916748047,-2.859960556030273,6.742277145385742,0.3100013732910156,0.4250526428222656,0.24608325958251956,102
2021-03-07 10:55:52.566,8.504463195800781,-2.109355926513672,4.004424095153809,0.65728759765625,0.6029577255249023,0.6679410934448242,102
2021-03-07 10:55:52.666,8.458971977233888,-1.6592321395874023,3.1125564575195312,0.4197263717651367,0.3174581527709961,1.126018524169922,102
2021-03-07 10:55:52.766,6.415458679199219,-1.5981779098510742,1.9692907333374023,0.6700716018676758,0.14594554901123047,0.9150896072387696,102
2021-03-07 10:55:52.866,7.290566444396973,-0.7458162307739258,2.1763954162597656,-0.9268074035644532,-0.3100013732910156,0.1320962905883789,102
2021-03-07 10:55:52.966,8.589460372924805,-0.6237077713012695,1.869928359985352,-0.01810932159423828,-1.6821031570434568,-0.8224086761474609,102
2021-03-07 10:55:53.066,10.849655151367188,-2.174000740051269,4.5826416015625,1.235743522644043,-0.4697952270507813,0.0010652542114257812,102
2021-03-07 10:55:53.166,9.326896667480467,-2.7127132415771484,8.011242866516112,0.4250526428222656,-0.4335756301879883,-0.7009649276733398,102
2021-03-07 10:55:53.266,9.092257499694824,-1.9884443283081052,4.642498016357422,0.4250526428222656,-0.4335756301879883,-0.7009649276733398,102
2021-03-07 10:55:53.366,6.992478370666504,-1.452127456665039,4.418633460998535,0.12463951110839845,0.4218568801879883,-0.12037849426269533,102
2021-03-07 10:55:53.466,11.303370475769045,-3.238256454467773,4.952556610107422,0.12463951110839845,0.4218568801879883,-0.12037849426269533,102
2021-03-07 10:55:53.566,8.147716522216799,-1.7789459228515625,2.812075614929199,0.12463951110839845,0.4218568801879883,-0.12037849426269533,102
2021-03-07 10:55:53.666,8.147716522216799,-1.7789459228515625,2.812075614929199,0.12463951110839845,0.4218568801879883,-0.12037849426269533,102
2021-03-07 10:55:53.766,8.147716522216799,-1.7789459228515625,2.812075614929199,0.12463951110839845,0.4218568801879883,-0.12037849426269533,102
2021-03-07 10:55:53.866,8.147716522216799,-1.7789459228515625,2.812075614929199,0.26312828063964844,-0.15233707427978516,0.21092796325683594,102
2021-03-07 10:55:53.966,7.25465202331543,-1.5203638076782229,1.2498111724853516,1.130279541015625,-0.6253290176391602,0.5102767944335938,102
2021-03-07 10:55:54.066,6.104203224182129,-1.6352891921997068,2.201535224914551,0.3334379196166992,-0.2993478775024414,0.01597881317138672,102
2021-03-07 10:55:54.166,8.265035629272461,-1.296499252319336,3.1317110061645512,-1.0972557067871094,-0.08735370635986328,-0.2087974548339844,102
2021-03-07 10:55:54.266,10.486923217773438,-1.7873258590698242,4.643694877624512,0.01810932159423828,0.10013771057128906,0.07776641845703125,102
2021-03-07 10:55:54.366,8.763045310974121,-2.936577796936035,5.519999504089356,-0.15659809112548828,0.5475625991821289,0.4602079391479492,102
2021-03-07 10:55:54.466,8.864801406860352,-0.767364501953125,2.9952373504638667,-0.705225944519043,0.2950868606567383,0.4452934265136719,102
2021-03-07 10:55:54.566,6.960156440734862,-0.640467643737793,2.2757577896118164,-0.0862884521484375,-0.3185234069824219,-0.11718177795410155,102
2021-03-07 10:55:54.666,5.472114562988281,-0.1628103256225586,3.160442352294922,-0.1896219253540039,-0.3739185333251953,-0.943852424621582,102
2021-03-07 10:55:54.766,7.122966766357423,-2.030344009399414,4.334834098815918,0.4932317733764648,-0.020239830017089844,-0.8490409851074219,102
2021-03-07 10:55:54.866,10.486923217773438,-2.554690361022949,6.027585983276367,-0.3771142959594727,0.056460380554199226,-0.16512012481689453,102
2021-03-07 10:55:54.966,11.994118690490724,-2.986857414245605,5.624151229858398,0.6040229797363281,0.3281106948852539,0.5273218154907227,102
2021-03-07 10:55:55.066,7.364788055419923,-1.0834083557128906,2.4577226638793945,0.4804487228393554,0.5028200149536133,0.578455924987793,102
2021-03-07 10:55:55.166,8.710371017456055,-1.504800796508789,2.297306060791016,0.3984203338623047,-0.11824703216552734,1.1185617446899414,102
2021-03-07 10:55:55.266,6.73509407043457,-1.2462196350097656,2.24343490600586,0.5709991455078125,-0.3057394027709961,0.6668758392333984,102
2021-03-07 10:55:55.366,6.87515926361084,-0.6308908462524414,2.4960308074951167,-0.6466350555419922,-0.23969173431396484,-0.4548816680908203,102
2021-03-07 10:55:55.466,8.162081718444824,-1.0666484832763672,3.255016326904297,-0.6796588897705078,-0.19921016693115234,-1.130279541015625,102
2021-03-07 10:55:55.566,11.90792465209961,-2.111749649047852,6.9517765045166025,0.2780418395996094,0.4506196975708008,-0.3739185333251953,102
2021-03-07 10:55:55.666,7.866389274597168,-2.2075204849243164,4.6221466064453125,-1.5563983917236328,0.7190752029418945,0.15127182006835938,102
2021-03-07 10:55:55.766,9.053949356079102,-0.7063102722167969,2.4553279876708984,-0.6445045471191406,0.14274978637695312,0.3472862243652344,102
2021-03-07 10:55:55.866,5.333246231079102,-1.67120361328125,2.4625110626220703,-0.4506196975708008,-0.1619243621826172,-0.8501062393188477,102
2021-03-07 10:55:55.966,5.023187637329102,-0.924189567565918,3.2825498580932617,0.4804487228393554,-0.20027542114257807,-1.264507293701172,102
2021-03-07 10:55:56.066,9.007261276245117,-2.8264408111572266,6.842836380004883,0.09054946899414062,0.09694194793701172,-0.16298961639404294,102
2021-03-07 10:55:56.166,11.06633758544922,-2.901860237121582,7.342042922973633,0.5209293365478516,0.2301034927368164,0.6775283813476562,102
2021-03-07 10:55:56.266,9.148523330688477,-1.9489393234252932,3.179595947265625,1.0099010467529297,0.15446758270263672,0.874608039855957,102
2021-03-07 10:55:56.366,7.365985870361327,-1.8507738113403318,1.9082365036010744,1.0461206436157229,-0.2013406753540039,0.690312385559082,102
2021-03-07 10:55:56.466,5.9246320724487305,-1.5299406051635742,1.511983871459961,0.8522367477416992,-0.2332992553710937,0.19388389587402344,102
2021-03-07 10:55:56.566,7.541964530944824,-1.0367202758789062,2.5570850372314453,-0.10652923583984376,-0.1970796585083008,-0.184295654296875,102
2021-03-07 10:55:56.666,11.011268615722656,-1.6412744522094729,3.590214729309082,-0.43570613861083984,-0.34409046173095703,0.20986270904541016,102
2021-03-07 10:55:56.766,10.929863929748537,-1.7154970169067385,5.816889762878418,0.13955307006835938,0.1906881332397461,0.6413078308105469,102
2021-03-07 10:55:56.866,8.322498321533201,-0.13886737823486328,4.786154747009277,-0.8011026382446289,0.6743326187133789,0.034089088439941406,102
2021-03-07 10:55:56.966,7.398308753967285,0.6560306549072266,2.681587219238281,-0.2247772216796875,0.19281864166259768,-0.16938209533691406,102
2021-03-07 10:55:57.066,6.2442684173583975,-0.8092641830444336,2.3607540130615234,-0.4175958633422852,-0.6381120681762695,-0.39522457122802734,102
2021-03-07 10:55:57.166,6.0455427169799805,0.041899681091308594,3.5531034469604488,-1.0045747756958008,-0.4154653549194336,-1.3657102584838867,102
2021-03-07 10:55:57.266,8.350032806396483,-2.467299461364746,5.548730850219727,0.10865974426269533,0.07137489318847656,-1.2943353652954102,102
2021-03-07 10:55:57.366,12.893168449401855,-3.854782104492188,7.54555606842041,0.8213434219360352,0.2546052932739258,0.7244014739990234,102
2021-03-07 10:55:57.466,8.101028442382812,-0.7003250122070312,3.56387710571289,-0.03621959686279297,0.2450180053710937,1.2975311279296875,102
2021-03-07 10:55:57.566,8.023214340209961,-1.2234735488891602,2.4505395889282227,0.6530265808105469,-0.11824703216552734,1.311380386352539,102
2021-03-07 10:55:57.666,6.433415412902832,-0.9948205947875975,2.10456657409668,0.2833681106567383,0.009587287902832031,0.5688676834106445,102
2021-03-07 10:55:57.766,7.148106575012207,-0.5147686004638672,2.6432790756225586,-0.7286624908447266,-0.18109989166259768,-0.6178712844848633,102
2021-03-07 10:55:57.866,9.634560585021973,-0.8619384765625,3.1951589584350586,0.322784423828125,-0.4655342102050781,-1.2186994552612305,102
2021-03-07 10:55:57.966,12.920702934265135,-2.3260374069213867,7.040364265441895,-0.0980072021484375,0.5145378112792969,-0.003195762634277344,102
2021-03-07 10:55:58.066,7.0116329193115225,0.07422161102294922,3.833232879638672,-1.5244398117065432,0.7552947998046875,-0.02237033843994141,102
2021-03-07 10:55:58.166,7.549147605895996,-0.39505481719970703,1.9453477859497068,-0.4090738296508789,0.2652587890625,-0.4431629180908203,102
2021-03-07 10:55:58.266,6.126948356628418,-1.8711252212524412,2.242238044738769,0.1725778579711914,-0.21518993377685547,-0.6040229797363281,102
2021-03-07 10:55:58.366,7.053532600402832,-1.1121397018432615,4.326454162597656,-0.06817817687988281,-0.4687299728393554,-0.7797966003417969,102
2021-03-07 10:55:58.466,8.419466972351074,-1.3970584869384766,6.11497688293457,-0.2801723480224609,-0.02450180053710937,-0.5720643997192383,102
2021-03-07 10:55:58.566,11.38597297668457,-2.3811054229736333,7.5671043395996085,0.9044370651245116,0.36007022857666016,0.4900360107421875,102
2021-03-07 10:55:58.666,8.266232490539549,-1.7573966979980469,3.718308448791504,0.5028200149536133,0.4772529602050781,0.9491786956787108,102
2021-03-07 10:55:58.766,7.452179908752441,-1.2186851501464844,2.650461196899414,0.3068046569824219,0.09907245635986328,1.2964658737182615,102
2021-03-07 10:55:58.866,5.883929252624513,-1.3695249557495115,1.5909948348999023,0.3046741485595703,-0.1672515869140625,0.6413078308105469,102
2021-03-07 10:55:58.966,8.49488639831543,-0.6991281509399414,1.8028879165649412,-0.4431629180908203,-0.9832687377929688,-0.19388389587402344,102
2021-03-07 10:55:59.066,10.99810028076172,-1.5574750900268557,2.2745609283447266,0.6136102676391602,-1.3987340927124023,-0.2418222427368164,102
2021-03-07 10:55:59.166,10.54677963256836,-2.9820690155029297,7.678438186645508,-0.0170440673828125,0.07244014739990234,-0.07883167266845703,102
2021-03-07 10:55:59.266,8.066310882568361,-0.9732723236083984,4.4138450622558585,-0.0170440673828125,0.07244014739990234,-0.07883167266845703,102
2021-03-07 10:55:59.366,5.782173156738281,-0.4417428970336914,1.8064794540405276,0.5422353744506836,0.4229221343994141,-0.530517578125,102
2021-03-07 10:55:59.466,10.521639823913574,-3.423811912536621,4.879530906677246,0.5422353744506836,0.4229221343994141,-0.530517578125,102
2021-03-07 10:55:59.566,10.521639823913574,-3.423811912536621,4.879530906677246,0.5422353744506836,0.4229221343994141,-0.530517578125,102
2021-03-07 10:55:59.666,10.521639823913574,-3.423811912536621,4.879530906677246,0.5422353744506836,0.4229221343994141,-0.530517578125,102
2021-03-07 10:55:59.766,10.521639823913574,-3.423811912536621,4.879530906677246,0.5422353744506836,0.4229221343994141,-0.530517578125,102
2021-03-07 10:55:59.866,10.521639823913574,-3.423811912536621,4.879530906677246,0.6679410934448242,0.6849851608276367,0.5582151412963867,102
2021-03-07 10:55:59.966,8.90430736541748,-2.116538047790528,3.688379287719727,-0.4431629180908203,0.4037466049194336,1.1622381210327148,102
2021-03-07 10:56:00.066,6.817696571350098,-1.504800796508789,2.1177358627319336,0.9928560256958008,-0.07670116424560547,1.1654348373413086,102
2021-03-07 10:56:00.166,6.500454902648926,-1.3994531631469729,1.3407936096191406,0.09054946899414062,-0.4314451217651367,0.3771142959594727,102
2021-03-07 10:56:00.266,7.940611839294434,-0.773350715637207,2.10456657409668,0.1970796585083008,-0.9172201156616212,-0.3419599533081055,102
2021-03-07 10:56:00.366,10.919089317321776,-1.7526082992553709,3.650071144104004,0.499624252319336,-0.5731296539306641,-0.3217191696166992,102
2021-03-07 10:56:00.466,10.915497779846193,-3.1915674209594727,6.713545799255371,0.25140953063964844,0.4793834686279297,0.401616096496582,102
2021-03-07 10:56:00.566,8.566714286804201,-0.5901880264282227,4.03195858001709,-1.6821031570434568,1.0386638641357422,0.2695198059082031,102
2021-03-07 10:56:00.666,7.0008583068847665,-0.6763820648193359,2.415822982788086,-0.3068046569824219,0.3611354827880859,-0.061786651611328125,102
2021-03-07 10:56:00.766,5.417045593261719,-0.8044757843017578,2.349980354309082,-0.4463586807250977,-0.21625518798828125,-0.8714122772216797,102
2021-03-07 10:56:00.866,6.75544548034668,-1.1169290542602541,3.041925430297852,-0.93426513671875,-0.334503173828125,-1.4498682022094729,102
2021-03-07 10:56:00.966,9.988913536071776,-1.8196487426757808,5.8947038650512695,-0.07883167266845703,0.13422679901123047,-1.1537160873413086,102
2021-03-07 10:56:01.066,10.488120079040527,-4.091814994812012,5.390708923339844,0.7755355834960938,0.5795211791992188,-0.21518993377685547,102
2021-03-07 10:56:01.166,9.249082565307617,-2.6444759368896484,4.501235961914063,0.12357425689697266,0.5528888702392578,0.9118938446044922,102
2021-03-07 10:56:01.266,8.04356575012207,-1.9333763122558596,2.5774364471435547,0.8032331466674805,0.2205162048339844,1.5446796417236328,102
2021-03-07 10:56:01.366,5.984489440917969,-1.9609107971191408,1.6400775909423828,0.9246768951416016,0.15979385375976562,1.07275390625,102
2021-03-07 10:56:01.466,7.9382171630859375,-0.7793359756469727,2.193155288696289,-1.3369474411010742,-0.2482137680053711,0.3046741485595703,102
2021-03-07 10:56:01.566,9.698009490966797,-0.4644889831542969,2.4026546478271484,0.9118938446044922,-1.2985963821411133,-0.3568744659423828,102
2021-03-07 10:56:01.666,11.442238807678224,-3.56387710571289,6.432218551635742,1.0088357925415041,-0.449554443359375,0.5901737213134766,102
2021-03-07 10:56:01.766,7.637736320495605,0.18076705932617188,4.869954109191895,-1.5958147048950195,0.9491786956787108,-0.04154586791992188,102
2021-03-07 10:56:01.866,6.210747718811035,-0.4094209671020508,3.9661159515380864,-1.507394790649414,0.747838020324707,-0.9662237167358398,102
2021-03-07 10:56:01.966,5.63612174987793,-1.4269876480102541,2.2135066986083984,0.5475625991821289,-0.3472862243652344,-1.5787696838378906,102
2021-03-07 10:56:02.066,7.646116256713867,-2.0937929153442383,3.2526216506958012,-0.0862884521484375,-0.4783182144165039,-1.2410707473754885,102
2021-03-07 10:56:02.166,10.380377769470217,-2.226675033569336,5.818086624145508,0.21518993377685547,0.14061832427978516,-0.15659809112548828,102
2021-03-07 10:56:02.266,11.91510772705078,-5.01241397857666,7.35521125793457,1.2144384384155271,0.8405189514160156,0.9417219161987304,102
2021-03-07 10:56:02.366,8.383552551269531,-1.4533243179321291,4.0978002548217765,-0.3962898254394531,1.0173578262329102,1.1132345199584959,102
2021-03-07 10:56:02.466,7.454573631286621,-1.1193227767944336,2.4756793975830083,0.25034427642822266,0.3270454406738281,1.4786319732666016,102
2021-03-07 10:56:02.566,6.379544258117676,-1.7585945129394531,0.7841243743896484,0.7233362197875977,-0.25140953063964844,0.8245391845703125,102
2021-03-07 10:56:02.666,7.721535682678223,-0.4620943069458008,1.6963434219360352,-0.6871156692504883,-0.8096256256103516,-0.4538164138793945,102
2021-03-07 10:56:02.766,9.878776550292967,-0.9110212326049804,2.494833946228028,0.32491493225097656,-1.2453317642211914,-0.8810005187988281,102
2021-03-07 10:56:02.866,11.52484130859375,-3.696759223937988,8.087859153747559,-0.12996578216552734,0.07244014739990234,0.4218568801879883,102
2021-03-07 10:56:02.966,8.200390815734862,-0.43216609954833984,6.223917007446289,-1.1888704299926758,0.8564987182617188,0.02450180053710937,102
2021-03-07 10:56:03.066,6.484892845153809,-1.1875600814819336,3.3483924865722656,-0.4197263717651367,0.5390396118164062,-0.2066669464111328,102
2021-03-07 10:56:03.166,6.190396308898926,-0.5016002655029297,2.3942737579345703,-0.4729909896850586,-0.3078699111938477,-0.7702093124389648,102
2021-03-07 10:56:03.266,7.963356971740723,-0.98284912109375,2.9904489517211914,-0.12463951110839845,-0.6306552886962891,-1.1057777404785156,102
2021-03-07 10:56:03.366,9.4968900680542,-1.5000123977661133,5.290149688720703,0.033023834228515625,0.0287628173828125,-1.1856746673583984,102
2021-03-07 10:56:03.466,12.059961318969727,-3.718308448791504,6.9888877868652335,0.3877677917480469,0.6647443771362305,0.13103103637695312,102
2021-03-07 10:56:03.566,8.754665374755861,-1.86274528503418,4.4413795471191415,-0.09587669372558594,0.5592803955078125,0.8905878067016602,102
2021-03-07 10:56:03.666,7.296551704406737,-1.8543653488159182,2.6480674743652344,1.0407943725585938,0.21732044219970706,1.1803483963012695,102
2021-03-07 10:56:03.766,5.977306365966798,-1.6460638046264648,1.6819772720336914,0.34302520751953125,0.07350540161132812,0.7520990371704102,102
2021-03-07 10:56:03.866,8.093845367431639,-0.5542745590209961,2.1189327239990234,-0.6668758392333984,-0.4303798675537109,0.4314451217651367,102
2021-03-07 10:56:03.966,9.78420352935791,-0.8763036727905273,2.753415107727051,0.19388389587402344,-1.0716886520385742,-0.0692434310913086,102
2021-03-07 10:56:04.066,11.177671432495117,-1.2450227737426758,5.751047134399414,-0.7702093124389648,0.12463951110839845,-0.38350677490234375,102
2021-03-07 10:56:04.166,6.622563362121582,0.20830154418945312,5.63372802734375,-1.5958147048950195,0.8788690567016602,-0.9257421493530272,102
2021-03-07 10:56:04.266,7.778998374938965,0.2346382141113281,2.8084840774536133,-1.0226850509643557,0.4580774307250977,-0.974745750427246,102
2021-03-07 10:56:04.366,6.903890609741211,-0.8906698226928711,2.637292861938477,-0.17683887481689453,-0.21518993377685547,-1.030141830444336,102
2021-03-07 10:56:04.466,7.429433822631836,-1.268964767456055,2.8348207473754883,0.11931324005126953,-0.5049505233764648,-0.9331998825073242,102
2021-03-07 10:56:04.566,8.765439033508299,-1.848379135131836,4.739466667175293,0.2918910980224609,-0.2418222427368164,-0.2982826232910156,102
2021-03-07 10:56:04.666,11.464983940124512,-3.1712160110473637,8.657696723937987,0.9619626998901368,0.6125450134277344,0.8788690567016602,102
2021-03-07 10:56:04.766,8.134548187255861,-1.3060760498046875,4.507221221923828,0.7403812408447266,1.039729118347168,1.0503826141357422,102
2021-03-07 10:56:04.866,8.919870376586914,-1.2557964324951172,2.871932029724121,-0.0926799774169922,0.6434392929077148,1.3571882247924805,102
2021-03-07 10:56:04.966,6.776993751525879,-1.2713594436645508,1.455718994140625,1.0013790130615234,0.06391716003417969,1.0631656646728516,102
2021-03-07 10:56:05.066,8.156096458435059,-0.8523616790771484,0.9433441162109376,-0.2588663101196289,-0.588043212890625,0.3462209701538086,102
2021-03-07 10:56:05.166,8.820508003234863,-0.7278594970703125,2.1476640701293945,-0.9118938446044922,0.4964275360107422,-0.678593635559082,102
2021-03-07 10:56:05.266,10.45579719543457,-0.922992706298828,3.77457332611084,-0.9118938446044922,0.4964275360107422,-0.678593635559082,102
2021-03-07 10:56:05.366,6.308913230895996,-1.0307350158691406,3.369940757751465,-0.11185550689697266,-0.39522457122802734,0.11398601531982422,102
2021-03-07 10:56:05.466,9.671671867370604,-1.8124656677246092,6.401092529296875,-0.11185550689697266,-0.39522457122802734,0.11398601531982422,102
2021-03-07 10:56:05.566,9.671671867370604,-1.8124656677246092,6.401092529296875,-0.11185550689697266,-0.39522457122802734,0.11398601531982422,102
2021-03-07 10:56:05.666,9.671671867370604,-1.8124656677246092,6.401092529296875,-0.11185550689697266,-0.39522457122802734,0.11398601531982422,102
2021-03-07 10:56:05.766,9.671671867370604,-1.8124656677246092,6.401092529296875,-0.11185550689697266,-0.39522457122802734,0.11398601531982422,102
2021-03-07 10:56:05.866,9.671671867370604,-1.8124656677246092,6.401092529296875,1.0109663009643557,0.2886953353881836,0.6913776397705078,102
2021-03-07 10:56:05.966,10.120598793029783,-1.6388807296752932,4.926219940185547,0.3984203338623047,0.6178712844848633,0.7457075119018555,102
2021-03-07 10:56:06.066,8.488900184631348,-0.8044757843017578,2.9653091430664062,-0.27484607696533203,0.4506196975708008,0.7766008377075195,102
2021-03-07 10:56:06.166,6.787768363952638,-0.6584253311157227,1.6568374633789062,0.6231985092163086,-0.07989692687988281,0.6743326187133789,102
2021-03-07 10:56:06.266,6.660871505737305,-1.0702400207519531,1.2905139923095703,-0.15872859954833984,-0.40694332122802734,-0.010652542114257812,102
2021-03-07 10:56:06.366,7.506051063537598,-0.4968118667602539,2.9006633758544917,0.07989692687988281,-0.6967039108276367,-0.7680788040161133,102
2021-03-07 10:56:06.466,9.6956148147583,-1.6891603469848633,4.397085189819337,-0.461273193359375,-0.5614109039306641,-0.982203483581543,102
2021-03-07 10:56:06.566,11.52484130859375,-1.4724788665771484,6.929030418395996,-0.4271831512451172,0.36539649963378906,-0.2716503143310547,102
2021-03-07 10:56:06.666,7.795758247375487,-0.3088607788085937,4.550318717956543,-1.7289762496948242,0.6231985092163086,-0.07030868530273438,102
2021-03-07 10:56:06.766,8.297358512878418,-0.0682363510131836,1.7298631668090818,-0.5752601623535156,0.196014404296875,-0.21092796325683594,102
2021-03-07 10:56:06.866,5.977306365966798,0.07661628723144531,2.3894853591918945,-0.11079025268554688,-0.3270454406738281,-0.716944694519043,102
2021-03-07 10:56:06.966,6.871567726135254,-0.08379936218261719,3.003617286682129,-0.4431629180908203,-0.4175958633422852,-1.482892990112305,102
2021-03-07 10:56:07.066,8.737905502319336,0.022745132446289062,5.178815841674805,0.26206302642822266,0.09907245635986328,-0.9278736114501952,102
2021-03-07 10:56:07.166,13.592296600341795,-2.748626708984375,7.6209754943847665,0.9790077209472656,0.6892461776733398,0.5507583618164062,102
2021-03-07 10:56:07.266,9.481327056884766,-3.0096025466918945,5.176421165466309,0.7190752029418945,0.8916530609130859,1.4669132232666016,102
2021-03-07 10:56:07.366,8.551151275634767,-0.9960174560546876,2.5822248458862305,0.2578010559082031,0.4442281723022461,1.96334171295166,102
2021-03-07 10:56:07.466,6.623760223388673,-1.6448659896850586,1.5622634887695312,1.2581148147583008,0.184295654296875,1.5041990280151367,102
2021-03-07 10:56:07.566,7.401899337768555,-0.6644105911254883,1.3587503433227541,-0.7595558166503906,-0.2567358016967773,0.5433006286621094,102
2021-03-07 10:56:07.666,9.446610450744627,-0.1891469955444336,2.0471048355102544,-0.2578010559082031,-1.4530649185180664,-0.11398601531982422,102
2021-03-07 10:56:07.766,10.294183731079102,-2.000415802001953,4.304905891418457,0.7222709655761719,-0.4367713928222656,-0.2024059295654297,102
2021-03-07 10:56:07.866,9.18443775177002,-0.6739873886108398,6.173636436462402,-1.968667984008789,0.8703470230102539,-0.5454311370849609,102
2021-03-07 10:56:07.966,7.885542869567871,1.0091867446899414,4.946571350097656,-1.4786319732666016,0.8756732940673828,-0.8927183151245117,102
2021-03-07 10:56:08.066,5.660064697265625,-1.1564340591430664,2.357163429260254,-0.09587669372558594,0.1097249984741211,-1.5713129043579102,102
2021-03-07 10:56:08.166,6.842836380004883,-1.103759765625,2.315262794494629,-0.05113410949707031,-0.6061534881591797,-2.22860050201416,102
2021-03-07 10:56:08.266,10.755081176757812,-2.4565258026123047,4.693975448608398,1.226156234741211,0.007456779479980469,-0.6242637634277344,102
2021-03-07 10:56:08.366,11.845673561096193,-4.46532154083252,7.841249465942383,1.3486652374267578,1.0152273178100586,1.9995622634887693,102
2021-03-07 10:56:08.466,10.708393096923828,-1.7633829116821291,4.589823722839356,-0.774470329284668,0.9491786956787108,2.75166130065918,102
2021-03-07 10:56:08.566,7.612595558166504,-0.6045541763305664,3.529160499572754,1.2623767852783203,0.4367713928222656,2.188119888305664,102
2021-03-07 10:56:08.666,6.093428611755371,-1.4904356002807615,0.5937795639038086,0.6168060302734375,0.1896219253540039,0.6274595260620117,102
2021-03-07 10:56:08.766,8.571502685546875,-0.026336669921875,2.0758352279663086,-1.4850234985351562,-0.690312385559082,-0.12783527374267578,102
2021-03-07 10:56:08.866,9.221549034118652,-0.5171632766723633,2.5139875411987305,1.082341194152832,-1.3103151321411133,-1.2282867431640625,102
2021-03-07 10:56:08.966,8.881561279296875,-2.876720428466797,6.119765281677246,-1.1292142868041992,0.007456779479980469,-1.0216188430786133,102
2021-03-07 10:56:09.066,8.587065696716309,0.7553930282592773,6.598620414733888,-1.9164686203002932,0.5986967086791992,-0.997117042541504,102
2021-03-07 10:56:09.166,6.381938934326173,-1.8842935562133791,3.3124790191650386,-0.7595558166503906,0.4175958633422852,-1.1760873794555664,102
2021-03-07 10:56:09.266,5.984489440917969,-1.8160572052001955,2.439764976501465,-0.07776641845703125,-0.4229221343994141,-1.550006866455078,102
2021-03-07 10:56:09.366,8.619388580322267,-2.1955490112304688,3.1664276123046875,0.0862884521484375,-0.5241260528564453,-0.8245391845703125,102
2021-03-07 10:56:09.466,9.846454620361328,-2.656447410583496,6.156876564025879,0.7414464950561523,0.21732044219970706,0.7893848419189453,102
2021-03-07 10:56:09.566,10.30615520477295,-3.4286012649536133,6.935016632080077,1.8014163970947266,0.8607597351074219,1.4871540069580078,102
2021-03-07 10:56:09.666,9.73512077331543,-1.3719186782836914,4.137306213378906,0.2844333648681641,0.8117561340332031,1.4818277359008791,102
2021-03-07 10:56:09.766,6.44419002532959,-0.835601806640625,2.426596641540528,1.4860887527465818,0.6445045471191406,1.0567741394042969,102
2021-03-07 10:56:09.866,7.036772727966309,-1.3695249557495115,1.298893928527832,-0.7457075119018555,0.39522457122802734,0.5955009460449219,102
2021-03-07 10:56:09.966,10.040390968322754,0.07422161102294922,1.7454261779785156,-1.5350923538208008,-0.8192129135131836,0.18642616271972656,102
2021-03-07 10:56:10.066,11.358438491821287,-1.0008068084716797,3.1951589584350586,1.2719640731811523,-1.5446796417236328,0.07137489318847656,102
2021-03-07 10:56:10.166,7.349225997924805,-0.9636955261230468,6.272998809814452,-0.4378366470336914,-0.3398294448852539,-1.1228227615356443,102
2021-03-07 10:56:10.266,8.1668701171875,0.7781391143798828,7.18641471862793,-1.2655725479125977,0.8479757308959961,-1.4306936264038086,102
2021-03-07 10:56:10.366,6.051528930664063,-2.2793493270874023,3.1412878036499023,-0.3355684280395508,0.26206302642822266,-1.4573259353637695,102
2021-03-07 10:56:10.466,7.586258888244629,-1.814859390258789,3.6009883880615234,0.3515472412109375,-0.4367713928222656,-1.2005891799926758,102
2021-03-07 10:56:10.566,9.081483840942383,-2.299700736999512,4.365959167480469,0.831995964050293,-0.2929563522338867,-0.3281106948852539,102
2021-03-07 10:56:10.666,12.044398307800293,-3.4980344772338867,7.025999069213867,1.913272857666016,0.6615486145019531,1.8983583450317385,102
2021-03-07 10:56:10.766,9.578295707702637,-1.5490951538085938,5.136916160583496,0.4186611175537109,1.3603839874267578,2.2999753952026367,102
2021-03-07 10:56:10.866,10.124190330505373,0.04549121856689453,3.7781648635864262,-0.3632659912109375,0.9076328277587892,2.3564367294311523,102
2021-03-07 10:56:10.966,6.61538028717041,-1.195940017700195,1.2653741836547852,1.146259307861328,0.33663368225097656,1.2123069763183594,102
2021-03-07 10:56:11.066,7.49527645111084,-0.2537927627563477,1.417409896850586,-0.7883195877075195,-0.4665994644165039,-0.3888330459594727,102
2021-03-07 10:56:11.166,9.654911994934082,-0.08978462219238281,2.595393180847168,-1.6288385391235352,0.5369091033935547,-2.1614866256713867,102
2021-03-07 10:56:11.266,10.0056734085083,-1.6305007934570312,5.485282897949219,-1.6288385391235352,0.5369091033935547,-2.1614866256713867,102
2021-03-07 10:56:11.366,7.197189331054688,-2.7031354904174805,3.53275203704834,0.4346408843994141,-0.2013406753540039,0.023435592651367188,102
2021-03-07 10:56:11.466,12.942251205444336,-4.574261665344238,6.601015090942383,0.4346408843994141,-0.2013406753540039,0.023435592651367188,102
2021-03-07 10:56:11.566,12.942251205444336,-4.574261665344238,6.601015090942383,0.4346408843994141,-0.2013406753540039,0.023435592651367188,102
2021-03-07 10:56:11.666,12.942251205444336,-4.574261665344238,6.601015090942383,0.4346408843994141,-0.2013406753540039,0.023435592651367188,102
2021-03-07 10:56:11.766,12.942251205444336,-4.574261665344238,6.601015090942383,0.4346408843994141,-0.2013406753540039,0.023435592651367188,102
2021-03-07 10:56:11.866,12.942251205444336,-4.574261665344238,6.601015090942383,2.331934928894043,0.4367713928222656,2.3234119415283203,102
2021-03-07 10:56:11.966,9.919479370117188,-1.6520490646362305,5.212335586547852,0.12677001953125,0.9694194793701172,2.4214191436767583,102
2021-03-07 10:56:12.066,8.66487979888916,0.1867532730102539,3.8859071731567374,0.7116174697875977,0.7041606903076172,1.8046121597290041,102
2021-03-07 10:56:12.166,6.332856178283691,-1.417409896850586,1.526350021362305,0.6136102676391602,0.4538164138793945,0.5816516876220703,102
2021-03-07 10:56:12.266,7.328874588012695,-0.02154827117919922,1.9082365036010744,-1.264507293701172,-0.2364950180053711,-0.5688676834106445,102
2021-03-07 10:56:12.366,9.568717956542967,-0.2753410339355469,2.472087860107422,-0.12463951110839845,-1.0237503051757812,-1.3657102584838867,102
2021-03-07 10:56:12.466,9.101835250854492,-2.8671436309814453,5.238672256469727,0.0745706558227539,-0.7180099487304688,-0.65728759765625,102
2021-03-07 10:56:12.566,8.487703323364258,0.6308908462524414,5.437397003173828,-2.2392539978027344,0.09374523162841797,-1.2559843063354492,102
2021-03-07 10:56:12.666,6.551932334899902,-0.7182817459106445,4.332439422607422,-0.9459829330444336,0.26206302642822266,-1.2197647094726562,102
2021-03-07 10:56:12.766,6.627351760864258,-2.297306060791016,3.3340272903442383,0.034089088439941406,-0.2482137680053711,-1.2772903442382812,102
2021-03-07 10:56:12.866,8.979726791381836,-2.5151853561401367,4.230683326721191,0.021305084228515625,-0.2450180053710937,-0.5507583618164062,102
2021-03-07 10:56:12.966,10.7371244430542,-3.093402862548828,7.5371761322021475,1.4946107864379885,0.5646066665649414,1.1505203247070312,102
2021-03-07 10:56:13.066,8.619388580322267,-1.4880409240722656,4.75383186340332,1.4434766769409182,1.2186994552612305,1.3838205337524414,102
2021-03-07 10:56:13.166,9.93504238128662,-1.3240337371826172,3.9050617218017583,-0.3867025375366211,1.07275390625,1.5872917175292969,102
2021-03-07 10:56:13.266,7.2043724060058585,-0.8786983489990234,2.2673778533935547,1.0770149230957031,0.5720643997192383,1.5329618453979492,102
2021-03-07 10:56:13.366,7.3528175354003915,-1.1540403366088867,1.136082649230957,-0.6381120681762695,0.13103103637695312,0.7968416213989258,102
2021-03-07 10:56:13.466,9.142537117004396,0.12689590454101562,2.1548471450805664,-1.7055397033691406,-0.6221332550048828,-0.4772529602050781,102
2021-03-07 10:56:13.566,8.812127113342285,-0.28252410888671875,3.9026670455932617,1.0812759399414062,-0.8138866424560547,-1.139866828918457,102
2021-03-07 10:56:13.666,8.967755317687988,-2.4924392700195312,8.060325622558594,-1.8205919265747068,0.3696575164794922,-1.668254852294922,102
2021-03-07 10:56:13.766,8.71515941619873,0.8571500778198242,5.347612380981445,-2.1103525161743164,0.5124073028564453,-1.290074348449707,102
2021-03-07 10:56:13.866,5.197970390319824,-2.2362518310546875,2.6396875381469727,-0.6445045471191406,-0.07883167266845703,-1.7321720123291016,102
2021-03-07 10:56:13.966,6.414261817932129,-2.288926124572754,2.1656208038330083,0.5145378112792969,-0.5763254165649414,-2.1732053756713867,102
2021-03-07 10:56:14.066,9.962576866149902,-3.499232292175293,5.581053733825684,0.3973550796508789,-0.2759113311767578,-0.3046741485595703,102
2021-03-07 10:56:14.166,11.95700740814209,-3.39388370513916,9.135354995727539,1.7492170333862305,0.6445045471191406,2.0443038940429688,102
2021-03-07 10:56:14.266,8.360806465148926,-2.0890045166015625,5.282966613769531,1.1739568710327148,1.0961904525756836,2.0986347198486333,102
2021-03-07 10:56:14.366,10.180455207824707,-0.5219516754150391,3.9385814666748047,0.2897605895996094,0.6924428939819336,2.0080842971801762,102
2021-03-07 10:56:14.466,6.982901573181152,-1.4245929718017578,1.5718412399291992,1.5265703201293943,0.5965662002563477,1.242136001586914,102
2021-03-07 10:56:14.566,7.78498363494873,-0.6572275161743164,1.7322568893432615,-1.2794208526611328,0.1374225616455078,0.3749837875366211,102
2021-03-07 10:56:14.666,10.528822898864746,0.16999340057373047,2.2326602935791016,-0.6956386566162109,-1.5425491333007812,-0.05113410949707031,102
2021-03-07 10:56:14.766,9.1437349319458,-2.00161361694336,4.246245384216309,1.3465347290039062,-1.7875680923461914,0.3057394027709961,102
2021-03-07 10:56:14.866,8.724736213684082,1.6652173995971682,5.122550010681152,-3.0733814239501958,0.19921016693115234,-1.5255050659179688,102
2021-03-07 10:56:14.966,6.937410354614258,-0.4070262908935547,10.042784690856934,-0.7552947998046875,0.7979068756103516,-1.8365716934204104,102
2021-03-07 10:56:15.066,5.371554374694824,-2.1823806762695312,1.5478982925415041,0.2578010559082031,0.04793834686279297,-2.064544677734375,102
2021-03-07 10:56:15.166,8.843253135681152,-2.114144325256348,3.5495119094848637,0.05539512634277344,-0.2599315643310547,-0.9385261535644532,102
2021-03-07 10:56:15.266,11.711594581604006,-3.0814313888549805,5.754638671875,0.9640932083129884,0.2450180053710937,1.4061918258666992,102
2021-03-07 10:56:15.366,10.224749565124512,-2.2685747146606445,6.040754318237305,0.6977691650390625,0.9257421493530272,2.0879812240600586,102
2021-03-07 10:56:15.466,8.662485122680664,-0.12210750579833984,3.2059335708618164,-0.011717796325683594,0.6423740386962891,1.8291139602661133,102
2021-03-07 10:56:15.566,7.138529777526856,-1.0103836059570312,2.8060894012451167,1.356122970581055,0.1491413116455078,1.3028573989868164,102
2021-03-07 10:56:15.666,6.80333137512207,-1.015172004699707,1.4353675842285156,-0.22158145904541016,0.11611652374267578,0.6775283813476562,102
2021-03-07 10:56:15.766,8.452986717224121,0.3160438537597656,2.2506179809570312,-1.9239253997802732,-0.5582151412963867,-0.621068000793457,102
2021-03-07 10:56:15.866,9.610618591308594,-0.37949180603027344,3.03354549407959,0.736119270324707,-0.5060157775878906,-1.6480140686035156,102
2021-03-07 10:56:15.966,8.711567878723145,-2.849186897277832,7.6628761291503915,-1.19952392578125,0.30254364013671875,-1.7343025207519531,102
2021-03-07 10:56:16.066,9.034794807434082,0.5710344314575195,4.810097694396973,-3.1873683929443364,0.874608039855957,-1.3710365295410156,102
2021-03-07 10:56:16.166,7.2331037521362305,-1.4617042541503906,2.6384906768798833,-0.6604833602905273,0.4175958633422852,-1.034402847290039,102
2021-03-07 10:56:16.266,6.289759635925293,-2.6732072830200195,3.091008186340332,0.5283870697021484,-0.3515472412109375,-1.5350923538208008,102
2021-03-07 10:56:16.366,8.37397575378418,-2.576239585876465,4.896291732788086,1.2549190521240234,-0.2908258438110352,-0.874608039855957,102
2021-03-07 10:56:16.466,11.609837532043455,-3.495640754699707,6.7853736877441415,1.3241634368896484,0.4857749938964844,2.4033098220825195,102
2021-03-07 10:56:16.566,8.933038711547852,-1.0654516220092771,5.540350914001465,0.6498308181762695,0.901240348815918,2.993483543395996,102
2021-03-07 10:56:16.666,10.037996292114258,-0.007182121276855469,3.41303825378418,0.06711292266845703,0.5422353744506836,2.298910140991211,102
2021-03-07 10:56:16.766,7.096630096435548,-0.6296939849853516,2.0890045166015625,0.8980445861816406,0.1555328369140625,1.0887327194213867,102
2021-03-07 10:56:16.866,6.466935157775879,-0.2262582778930664,2.2039289474487305,-0.6178712844848633,-0.3153276443481445,-0.5177335739135742,102
2021-03-07 10:56:16.966,8.297358512878418,0.11372756958007812,2.7031354904174805,-0.3675270080566406,-1.130279541015625,-2.1305932998657227,102
2021-03-07 10:56:17.066,11.854053497314453,-1.632894515991211,4.908262252807617,0.5539541244506836,-0.3611354827880859,-0.9939212799072266,102
2021-03-07 10:56:17.166,8.225530624389647,-0.7194786071777344,5.952166557312013,0.196014404296875,-0.4389019012451172,-1.471174240112305,102
2021-03-07 10:56:17.266,8.458971977233888,0.3016777038574219,3.328041076660156,1.9516239166259768,0.01597881317138672,-0.9214811325073242,102
2021-03-07 10:56:17.366,12.64895248413086,-4.118151664733887,8.688822746276855,-0.8074941635131836,-0.6455698013305664,-0.2716503143310547,102
2021-03-07 10:56:17.466,8.263838768005371,0.3555488586425781,3.1161479949951167,-0.8074941635131836,-0.6455698013305664,-0.2716503143310547,102
2021-03-07 10:56:17.566,8.263838768005371,0.3555488586425781,3.1161479949951167,-0.8074941635131836,-0.6455698013305664,-0.2716503143310547,102
2021-03-07 10:56:17.666,8.263838768005371,0.3555488586425781,3.1161479949951167,-0.8074941635131836,-0.6455698013305664,-0.2716503143310547,102
2021-03-07 10:56:17.766,8.263838768005371,0.3555488586425781,3.1161479949951167,-0.8074941635131836,-0.6455698013305664,-0.2716503143310547,102
2021-03-07 10:56:17.866,8.263838768005371,0.3555488586425781,3.1161479949951167,-0.8074941635131836,-0.6455698013305664,-0.2716503143310547,102
2021-03-07 10:56:17.966,8.263838768005371,0.3555488586425781,3.1161479949951167,0.635981559753418,-1.3902120590209959,-1.7534780502319336,102
2021-03-07 10:56:18.066,8.263838768005371,0.3555488586425781,3.1161479949951167,-1.3422737121582031,-0.578455924987793,-1.5777044296264648,102
2021-03-07 10:56:18.166,9.894339561462402,-1.9082365036010744,6.4429931640625,-1.6916913986206057,-0.0021305084228515625,-1.9164686203002932,102
2021-03-07 10:56:18.266,9.59744930267334,1.7250747680664062,5.194378852844238,-0.4516849517822266,0.19388389587402344,-2.118875503540039,102
2021-03-07 10:56:18.366,6.848822593688965,-2.472087860107422,3.9517498016357417,0.3579397201538086,-0.1661853790283203,-1.5063295364379885,102
2021-03-07 10:56:18.466,7.464151382446289,-2.535536766052246,3.4812746047973637,0.6136102676391602,-0.020239830017089844,0.5773906707763672,102
2021-03-07 10:56:18.566,10.234326362609863,-3.7422504425048833,5.314092636108398,1.9431009292602541,0.5805864334106445,3.0307693481445312,102
2021-03-07 10:56:18.666,12.182068824768065,-3.781756401062012,7.081067085266112,0.5944347381591797,1.273029327392578,2.472553253173828,102
2021-03-07 10:56:18.766,10.360026359558104,-0.6859588623046875,4.580246925354004,-0.11718177795410155,0.7595558166503906,1.972929000854492,102
2021-03-07 10:56:18.866,9.675263404846193,-0.1053476333618164,4.180402755737306,0.8330621719360352,0.5731296539306641,0.9023056030273438,102
2021-03-07 10:56:18.966,6.229902267456055,-1.0893945693969729,0.7865190505981445,-1.395538330078125,-0.20986270904541016,-0.65728759765625,102
2021-03-07 10:56:19.066,7.100221633911133,-0.05027961730957031,1.869928359985352,-0.4644689559936523,-1.2442665100097656,-1.8333759307861328,102
2021-03-07 10:56:19.166,8.802550315856934,-0.268157958984375,2.814469337463379,1.7012786865234375,-0.9513101577758788,-0.6615486145019531,102
2021-03-07 10:56:19.266,9.724346160888672,-2.347585678100586,4.20314884185791,-2.157225608825684,-0.2141246795654297,-0.4644689559936523,102
2021-03-07 10:56:19.366,10.1170072555542,-1.2210798263549805,5.476902961730957,-1.0557088851928709,0.20347118377685547,-1.013096809387207,102
2021-03-07 10:56:19.466,7.3109169006347665,-1.2713594436645508,4.799323081970215,-0.34302520751953125,0.06711292266845703,-1.5084600448608398,102
2021-03-07 10:56:19.566,5.557110786437988,-1.2450227737426758,3.767391204833984,-0.2929563522338867,-0.07776641845703125,-0.7925806045532227,102
2021-03-07 10:56:19.666,7.308523178100586,-2.0698499679565434,4.1001949310302725,0.6722021102905273,0.3334379196166992,0.805363655090332,102
2021-03-07 10:56:19.766,10.28700065612793,-2.4014568328857417,5.504437446594238,1.2069807052612305,0.6764631271362305,1.8727912902832031,102
2021-03-07 10:56:19.866,10.496500015258787,-2.755809783935547,5.187195777893066,-0.4293146133422852,0.6658105850219727,1.6821031570434568,102
2021-03-07 10:56:19.966,9.2550687789917,-1.0462980270385742,3.739856719970703,1.0599699020385742,0.2641935348510742,1.0972557067871094,102
2021-03-07 10:56:20.066,6.986493110656737,-0.5901880264282227,2.7378530502319336,-0.1043987274169922,0.1970796585083008,0.19175338745117188,102
2021-03-07 10:56:20.166,6.322081565856934,-1.1265058517456057,1.6305007934570312,-1.8472242355346682,-0.5496931076049805,-0.7851238250732422,102
2021-03-07 10:56:20.266,8.642133712768555,-0.08978462219238281,2.6157445907592773,1.1451940536499023,-0.7286624908447266,-1.3007268905639648,102
2021-03-07 10:56:20.366,10.792192459106444,-0.5075855255126953,3.1472740173339844,-0.1906881332397461,-0.01810932159423828,-1.0333375930786133,102
2021-03-07 10:56:20.466,7.084658622741699,-3.1903705596923833,5.08543872833252,-2.1817274093627934,0.2130584716796875,-0.7009649276733398,102
2021-03-07 10:56:20.566,10.063136100769043,0.4453344345092773,5.906675338745117,0.06711292266845703,0.18642616271972656,-0.6807241439819336,102
2021-03-07 10:56:20.666,5.980897903442383,-2.0997781753540044,3.0993881225585938,-0.3387641906738281,-0.3046741485595703,-0.8490409851074219,102
2021-03-07 10:56:20.766,6.3005332946777335,-1.9082365036010744,3.1293163299560547,0.2705850601196289,-0.08202743530273438,-0.22371196746826166,102
2021-03-07 10:56:20.866,9.20598602294922,-2.193155288696289,4.63531494140625,1.560659408569336,0.6317205429077148,1.3667755126953125,102
2021-03-07 10:56:20.966,12.189251899719238,-3.434586524963379,7.828081130981445,0.5337133407592773,1.0194883346557615,1.4147138595581057,102
2021-03-07 10:56:21.066,8.826493263244629,-0.6739873886108398,4.788548469543457,0.06498241424560547,0.8181476593017578,1.2666378021240234,102
2021-03-07 10:56:21.166,8.324892997741701,-0.8894729614257812,3.3579702377319336,0.6050882339477539,0.6200027465820312,0.8692817687988281,102
2021-03-07 10:56:21.266,6.56390380859375,-1.260584831237793,1.970487594604492,-1.120692253112793,-0.11079025268554688,0.10013771057128906,102
2021-03-07 10:56:21.366,8.211164474487305,-0.5818080902099609,2.525959014892578,-0.1491413116455078,-1.2581148147583008,-1.2240257263183594,102
2021-03-07 10:56:21.466,9.16767692565918,-0.2382297515869141,2.9270000457763667,1.6277732849121094,-1.0908632278442385,-0.29721736907958984,102
2021-03-07 10:56:21.566,9.747092247009276,-1.693948745727539,4.409056663513184,-1.4179096221923828,-0.21092796325683594,-0.5827169418334961,102
2021-03-07 10:56:21.666,8.23630428314209,-0.9409494400024414,5.625348091125488,-1.550006866455078,0.2780418395996094,-0.7318582534790039,102
2021-03-07 10:56:21.766,7.3731689453125,0.31125545501708984,4.835237503051758,-0.40055084228515625,0.07030868530273438,-1.0013790130615234,102
2021-03-07 10:56:21.866,6.2047624588012695,-1.3791017532348633,4.7789716720581055,-0.3579397201538086,-0.2418222427368164,-1.0812759399414062,102
2021-03-07 10:56:21.966,7.315706253051758,-1.6604290008544922,3.6392974853515625,0.8543672561645508,0.18216514587402344,-0.1736431121826172,102
2021-03-07 10:56:22.066,9.522029876708984,-2.048301696777344,5.56429386138916,1.1750221252441406,0.5369091033935547,1.2485275268554688,102
2021-03-07 10:56:22.166,12.416707992553713,-3.9050617218017583,6.92543888092041,0.3558082580566406,0.7712745666503906,1.385951042175293,102
2021-03-07 10:56:22.266,8.512843132019043,-1.7143001556396484,4.219908714294434,0.6658105850219727,0.4761877059936523,1.3784933090209959,102
2021-03-07 10:56:22.366,7.614990234375,-0.7829275131225586,3.3304357528686523,0.33237171173095703,0.4058780670166016,0.8128213882446289,102
2021-03-07 10:56:22.466,6.269408226013184,-1.6197261810302734,1.860350608825684,-1.1675653457641602,-0.2471485137939453,-0.09054946899414062,102
2021-03-07 10:56:22.566,7.759843826293945,-0.10055923461914062,2.63370132446289,0.07030868530273438,-1.0961904525756836,-1.06103515625,102
2021-03-07 10:56:22.666,9.844059944152832,-0.4441375732421875,3.4166297912597656,0.3408946990966797,-0.2578010559082031,-0.9278736114501952,102
2021-03-07 10:56:22.766,10.231932640075684,-1.573038101196289,6.01441764831543,-2.0837202072143555,0.3664617538452149,-0.6892461776733398,102
2021-03-07 10:56:22.866,8.432635307312013,-1.0319318771362305,5.94618034362793,-1.0503826141357422,0.3504819869995117,-0.6679410934448242,102
2021-03-07 10:56:22.966,7.003252983093263,0.36153507232666016,3.368743896484375,-0.3068046569824219,-0.2918910980224609,-1.024815559387207,102
2021-03-07 10:56:23.066,5.838438034057617,-1.91182804107666,2.5235652923583984,-0.482579231262207,1.0269460678100586,1.9782562255859373,102
2021-03-07 10:56:23.166,7.213949203491211,-1.2282629013061523,3.5854263305664062,-0.482579231262207,1.0269460678100586,1.9782562255859373,102
2021-03-07 10:56:23.266,9.709980964660645,-2.470890998840332,5.593025207519531,-0.482579231262207,1.0269460678100586,1.9782562255859373,102
2021-03-07 10:56:23.366,7.239089012145996,-0.5135717391967773,3.354378700256348,-1.134540557861328,-0.8767385482788086,-0.4772529602050781,102
2021-03-07 10:56:23.466,7.239089012145996,-0.5135717391967773,3.354378700256348,-0.4932317733764648,-1.0599699020385742,-0.4804487228393554,102
2021-03-07 10:56:23.566,10.770644187927246,-0.7709560394287109,3.9050617218017583,-1.6330995559692385,-0.3185234069824219,-0.2791070938110352,102
2021-03-07 10:56:23.666,9.987716674804688,-1.3635387420654297,4.56468391418457,0.9683542251586914,-1.193132400512695,-0.3888330459594727,102
2021-03-07 10:56:23.766,8.421860694885254,-1.7107086181640625,5.285361289978027,-0.7680788040161133,-0.4932317733764648,-0.8703470230102539,102
2021-03-07 10:56:23.866,7.85561466217041,-1.6724004745483398,5.591828346252441,-1.4701089859008791,0.05539512634277344,-1.4306936264038086,102
2021-03-07 10:56:23.966,7.781392097473144,1.6688089370727541,4.897488594055176,-0.4463586807250977,0.06391716003417969,-1.3433389663696291,102
2021-03-07 10:56:24.066,6.44538688659668,-0.927781105041504,3.2777614593505864,-0.3909635543823242,-0.28656482696533203,-1.2677030563354492,102
2021-03-07 10:56:24.166,6.745868682861327,-1.2234735488891602,3.779361724853516,0.04474163055419922,-0.3579397201538086,-0.8405189514160156,102
2021-03-07 10:56:24.266,8.921067237854004,-1.7597913742065432,4.398282051086426,1.0652961730957031,0.4048128128051758,1.042924880981445,102
2021-03-07 10:56:24.366,10.361223220825195,-2.6983470916748047,6.360390663146973,1.3795595169067385,1.0972557067871094,1.9431009292602541,102
2021-03-07 10:56:24.466,8.849238395690918,-2.3260374069213867,5.177618980407715,-0.4463586807250977,1.0354681015014648,2.149768829345703,102
2021-03-07 10:56:24.566,9.742302894592283,-0.8595438003540039,3.9254131317138667,0.9598321914672852,0.8021678924560547,1.5350923538208008,102
2021-03-07 10:56:24.666,7.5718936920166025,-0.920598030090332,3.310084342956543,-0.5102767944335938,0.07776641845703125,0.5678024291992188,102
2021-03-07 10:56:24.766,7.9992713928222665,-0.9553155899047852,1.9345731735229488,-0.8660860061645508,-0.8607597351074219,-0.7520990371704102,102
2021-03-07 10:56:24.866,8.825296401977539,0.2023153305053711,2.8467922210693364,-0.28656482696533203,-0.4751214981079102,-1.6544055938720703,102
2021-03-07 10:56:24.966,8.673259735107424,-0.058659553527832024,4.442576408386231,-1.3838205337524414,0.04154586791992188,-1.7183237075805664,102
2021-03-07 10:56:25.066,8.481718063354492,-0.767364501953125,5.82526969909668,-0.9246768951416016,0.19388389587402344,-1.364645004272461,102
2021-03-07 10:56:25.166,8.479323387145996,-0.6440591812133789,5.035159111022949,-0.19281864166259768,-0.2908258438110352,-1.5372228622436523,102
2021-03-07 10:56:25.266,6.5806636810302725,-1.889081954956055,3.4333896636962886,0.15127182006835938,-0.5646066665649414,-1.1047124862670898,102
2021-03-07 10:56:25.366,7.282186508178711,-1.9656991958618164,3.10178279876709,1.0972557067871094,0.20347118377685547,0.4729909896850586,102
2021-03-07 10:56:25.466,8.991698265075684,-2.700741767883301,5.812101364135742,1.6799726486206057,0.8543672561645508,2.224339485168457,102
2021-03-07 10:56:25.566,13.08710479736328,-4.08463191986084,8.812127113342285,0.06391716003417969,1.1920671463012695,1.895162582397461,102
2021-03-07 10:56:25.666,9.50287628173828,-0.803278923034668,4.506024360656738,0.9385261535644532,0.7915153503417969,1.1324100494384766,102
2021-03-07 10:56:25.766,7.6832275390625,-0.4537143707275391,3.60338306427002,0.334503173828125,0.5358438491821289,0.8554325103759766,102
2021-03-07 10:56:25.866,6.44419002532959,-1.6724004745483398,1.0594663619995115,-1.9473619461059568,-0.5017547607421875,0.2588663101196289,102
2021-03-07 10:56:25.966,10.418685913085938,0.0658416748046875,2.0506954193115234,0.322784423828125,-1.3848857879638672,-1.0045747756958008,102
2021-03-07 10:56:26.066,10.95620059967041,0.4201946258544922,3.1412878036499023,-0.14701080322265625,-0.774470329284668,-0.8245391845703125,102
2021-03-07 10:56:26.166,7.326479911804199,-1.5897979736328125,4.860377311706543,-1.3550567626953125,0.22158145904541016,-1.4498682022094729,102
2021-03-07 10:56:26.266,8.988106727600098,0.956512451171875,6.817696571350098,-0.9033708572387696,0.4346408843994141,-1.6245775222778318,102
2021-03-07 10:56:26.366,6.970930099487305,0.19633007049560547,4.58503532409668,0.0809621810913086,-0.10865974426269533,-1.699148178100586,102
2021-03-07 10:56:26.466,6.806922912597656,-1.6592321395874023,3.681197166442871,-0.06604766845703125,-0.2354297637939453,-1.108973503112793,102
2021-03-07 10:56:26.566,8.231515884399414,-1.9656991958618164,4.191177368164063,1.6671895980834959,0.2247772216796875,1.7396297454833984,102
2021-03-07 10:56:26.666,11.409915924072266,-2.7965126037597656,5.49485969543457,1.2133731842041016,0.8820657730102539,3.201216697692871,102
2021-03-07 10:56:26.766,9.33527660369873,-3.0012226104736333,5.1476898193359375,-0.3867025375366211,0.7520990371704102,3.008398056030273,102
2021-03-07 10:56:26.866,11.132180213928224,0.6955366134643555,4.106180191040038,1.0067052841186523,0.4335756301879883,1.3731670379638672,102
2021-03-07 10:56:26.966,7.4090824127197275,-0.7529993057250977,2.9006633758544917,-0.7275972366333008,-0.1097249984741211,-0.4591426849365234,102
2021-03-07 10:56:27.066,7.418660163879394,-0.0814046859741211,1.610149383544922,-0.6125450134277344,-0.9545059204101562,-1.7886333465576172,102
2021-03-07 10:56:27.166,9.202394485473633,0.5363168716430664,3.0718536376953125,0.6391773223876953,-0.3845720291137695,-1.9292526245117188,102
2021-03-07 10:56:27.266,8.537982940673826,-0.9014434814453124,4.431801795959473,-1.9910392761230469,0.14061832427978516,-1.368906021118164,102
2021-03-07 10:56:27.366,9.47773551940918,-1.5562782287597656,5.789356231689452,-1.0866022109985352,-0.030893325805664062,-0.7020301818847656,102
2021-03-07 10:56:27.466,7.848431587219237,-0.5901880264282227,3.8045024871826167,-0.010652542114257812,-0.5102767944335938,-0.8117561340332031,102
2021-03-07 10:56:27.566,5.886323928833008,-2.7043323516845703,2.440962791442871,-0.22690773010253906,-0.4793834686279297,-0.4367713928222656,102
2021-03-07 10:56:27.666,7.290566444396973,-1.921404838562012,3.5890169143676762,1.7960901260375977,0.6317205429077148,0.7680788040161133,102
2021-03-07 10:56:27.766,9.431047439575195,-1.9944305419921875,7.8400516510009775,1.0290765762329102,1.126018524169922,1.193132400512695,102
2021-03-07 10:56:27.866,12.275445938110352,-3.1436824798583984,6.398698806762695,-0.19814491271972656,1.0983209609985352,1.3571882247924805,102
2021-03-07 10:56:27.966,8.180039405822754,-0.773350715637207,4.492856025695801,0.7723398208618164,0.5560846328735352,1.458391189575195,102
2021-03-07 10:56:28.066,7.99448299407959,-1.0905914306640625,2.327234268188477,-0.24608325958251956,0.09587669372558594,0.9811382293701172,102
2021-03-07 10:56:28.166,6.8512163162231445,-1.4964208602905271,1.2869224548339844,-1.0578393936157229,-0.9193506240844728,-0.5635414123535156,102
2021-03-07 10:56:28.266,8.211164474487305,0.1053476333618164,2.41103458404541,1.8855752944946291,-1.3582534790039062,-0.401616096496582,102
2021-03-07 10:56:28.366,10.156513214111328,-0.4381513595581055,3.5052175521850586,-0.9587669372558594,-0.4389019012451172,-0.3909635543823242,102
2021-03-07 10:56:28.466,9.109017372131348,-2.1392841339111333,6.362784385681152,-1.5862264633178709,0.2727155685424805,-1.094059944152832,102
2021-03-07 10:56:28.566,7.897514343261719,1.2055168151855469,5.509225845336914,-0.7531642913818359,0.02769756317138672,-2.0048885345458984,102
2021-03-07 10:56:28.666,4.75502872467041,-1.1205196380615234,3.3376188278198238,1.0812759399414062,-0.3398294448852539,-1.3625144958496094,102
2021-03-07 10:56:28.766,6.869174003601074,-1.9932336807250977,3.1496677398681636,0.12357425689697266,0.1832304000854492,0.3302412033081055,102
2021-03-07 10:56:28.866,10.728744506835938,-3.3603639602661133,6.840442657470702,0.7606210708618164,1.1185617446899414,1.6852989196777344,102
2021-03-07 10:56:28.966,11.678074836730955,-2.067455291748047,7.811320304870605,-0.32065391540527344,1.217634201049805,2.0325860977172847,102
2021-03-07 10:56:29.066,9.74469757080078,-1.4030447006225586,5.090227127075195,0.08522319793701172,-1.3923425674438477,-1.1079082489013672,102
2021-03-07 10:56:29.166,8.237502098083496,-0.5434999465942383,3.523174285888672,0.08522319793701172,-1.3923425674438477,-1.1079082489013672,102
2021-03-07 10:56:29.266,5.889915466308594,-1.3826932907104492,1.2522048950195312,0.08522319793701172,-1.3923425674438477,-1.1079082489013672,102
2021-03-07 10:56:29.366,9.774625778198242,-1.923799514770508,5.502042770385742,-1.1057777404785156,0.22903823852539065,-1.1388015747070312,102
2021-03-07 10:56:29.466,9.774625778198242,-1.923799514770508,5.502042770385742,-1.1057777404785156,0.22903823852539065,-1.1388015747070312,102
2021-03-07 10:56:29.566,6.6417179107666025,-1.256993293762207,4.055900573730469,-1.1057777404785156,0.22903823852539065,-1.1388015747070312,102
2021-03-07 10:56:29.666,6.6417179107666025,-1.256993293762207,4.055900573730469,-1.1057777404785156,0.22903823852539065,-1.1388015747070312,102
2021-03-07 10:56:29.766,6.6417179107666025,-1.256993293762207,4.055900573730469,-0.30893516540527344,-0.042611122131347656,-1.3944730758666992,102
2021-03-07 10:56:29.866,6.6417179107666025,-1.256993293762207,4.055900573730469,-0.12570476531982422,-0.2141246795654297,-1.0418596267700195,102
2021-03-07 10:56:29.966,8.202784538269043,-1.5167722702026367,4.108574867248535,1.193132400512695,0.39202880859375,1.087667465209961,102
2021-03-07 10:56:30.066,11.74750804901123,-2.4505395889282227,6.2023677825927725,1.5745086669921875,0.9928560256958008,1.7353677749633791,102
2021-03-07 10:56:30.166,8.966558456420898,-2.6145477294921875,5.450566291809082,-0.7062911987304688,1.0067052841186523,1.9462966918945312,102
2021-03-07 10:56:30.266,9.23711109161377,-1.1564340591430664,3.4166297912597656,0.7201404571533203,0.5805864334106445,1.825918197631836,102
2021-03-07 10:56:30.366,7.705972671508789,-0.6249055862426758,2.9617176055908203,-0.2897605895996094,-0.06711292266845703,0.6445045471191406,102
2021-03-07 10:56:30.466,7.407885551452638,-1.2522048950195312,1.421001434326172,-0.6136102676391602,-1.1846094131469729,-1.1356058120727541,102
2021-03-07 10:56:30.566,8.655303001403809,0.22146987915039065,2.327234268188477,1.5627899169921875,-1.0386638641357422,-0.8692817687988281,102
2021-03-07 10:56:30.666,10.480937004089355,-0.6596221923828125,3.82365608215332,-1.2048501968383791,0.15872859954833984,-0.7968416213989258,102
2021-03-07 10:56:30.766,8.432635307312013,-2.0399217605590816,6.956564903259277,-2.1923809051513667,0.43570613861083984,-0.7872543334960938,102
2021-03-07 10:56:30.866,8.024411201477049,1.0427064895629885,4.982484817504883,-0.540104866027832,0.026632308959960938,-1.0152273178100586,102
2021-03-07 10:56:30.966,6.39391040802002,-1.266571044921875,2.9545345306396484,0.2844333648681641,-0.4506196975708008,-1.4509344100952148,102
2021-03-07 10:56:31.066,6.3292646408081055,-1.5359268188476562,3.460923194885254,0.482579231262207,-0.11185550689697266,-0.8032331466674805,102
2021-03-07 10:56:31.166,8.95578384399414,-2.0662584304809566,4.482081413269043,1.3273591995239258,0.5081462860107422,1.503133773803711,102
2021-03-07 10:56:31.266,13.170905113220215,-3.0048141479492188,7.673649787902832,0.4452934265136719,0.9214811325073242,1.8717260360717771,102
2021-03-07 10:56:31.366,8.637345314025879,-1.1492509841918943,4.8472089767456055,0.11185550689697266,0.7819271087646484,1.8003511428833008,102
2021-03-07 10:56:31.466,8.391932487487793,-0.2753410339355469,3.456134796142578,0.3728532791137695,0.7062911987304688,0.955571174621582,102
2021-03-07 10:56:31.566,6.653689384460449,-1.3695249557495115,2.225478172302246,-1.220829963684082,-0.08735370635986328,-0.030893325805664062,102
2021-03-07 10:56:31.666,8.913884162902832,-0.13527584075927734,2.868340492248535,-0.05113410949707031,-1.0312070846557615,-1.1366710662841797,102
2021-03-07 10:56:31.766,9.083877563476562,-0.03591346740722656,3.3424072265625,-0.530517578125,-0.9534406661987304,-1.1941976547241209,102
2021-03-07 10:56:31.866,8.255458831787111,-1.391073226928711,4.696369171142578,-0.7755355834960938,-0.647700309753418,-1.347599983215332,102
2021-03-07 10:56:31.966,8.359609603881836,0.988835334777832,3.438178062438965,-1.6277732849121094,-0.004261016845703125,-2.0560226440429688,102
2021-03-07 10:56:32.066,6.8572025299072275,-0.5638513565063477,3.478880882263184,-0.4783182144165039,-0.1789693832397461,-1.5223093032836914,102
2021-03-07 10:56:32.166,7.921457290649414,-1.6364860534667969,4.258216857910156,1.3412084579467771,0.4303798675537109,0.3984203338623047,102
2021-03-07 10:56:32.266,10.472557067871094,-3.5758485794067383,6.763825416564941,1.4999380111694336,1.3539915084838867,2.0943737030029297,102
2021-03-07 10:56:32.366,12.601067543029785,-4.51320743560791,8.576291084289549,-0.3867025375366211,1.825918197631836,2.2957143783569336,102
2021-03-07 10:56:32.466,9.604632377624512,-1.0115804672241209,4.540741920471191,-0.3068046569824219,1.2101764678955078,2.3223466873168945,102
2021-03-07 10:56:32.566,9.839271545410156,-0.4369544982910156,3.354378700256348,0.4080085754394531,0.5315828323364258,1.4519996643066406,102
2021-03-07 10:56:32.666,7.509642601013184,-1.2773447036743164,0.9457378387451172,-0.9331998825073242,-0.7925806045532227,-0.34409046173095703,102
2021-03-07 10:56:32.766,7.399505615234375,-0.046688079833984375,1.3276252746582031,0.4144001007080078,-2.2658863067626958,-2.4288768768310547,102
2021-03-07 10:56:32.866,7.622173309326173,0.21428680419921875,2.770174980163574,1.5010032653808594,-1.3380126953125,-1.2623767852783203,102
2021-03-07 10:56:32.966,9.459778785705566,-1.2905139923095703,4.3551855087280265,-2.201968193054199,-0.1320962905883789,-1.3763628005981443,102
2021-03-07 10:56:33.066,11.18844509124756,-0.7613792419433594,7.576682090759277,-1.3177719116210938,0.3355684280395508,-1.19952392578125,102
2021-03-07 10:56:33.166,7.792166709899902,0.2789325714111328,5.348809242248535,-0.16405487060546875,-0.042611122131347656,-1.1324100494384766,102
2021-03-07 10:56:33.266,6.3556013107299805,-2.528353691101074,2.9210147857666016,0.1438150405883789,-0.2301034927368164,-0.21625518798828125,102
2021-03-07 10:56:33.366,7.504853248596191,-1.8208456039428709,4.369550704956056,-0.3675270080566406,0.9736804962158204,2.1060914993286133,102
2021-03-07 10:56:33.466,9.31253147125244,-1.6041631698608398,4.810097694396973,-0.3675270080566406,0.9736804962158204,2.1060914993286133,102
2021-03-07 10:56:33.566,8.111802101135254,-0.12569904327392578,2.8156661987304688,-0.3675270080566406,0.9736804962158204,2.1060914993286133,102
2021-03-07 10:56:33.666,8.111802101135254,-0.12569904327392578,2.8156661987304688,0.991790771484375,0.4335756301879883,1.576639175415039,102
2021-03-07 10:56:33.766,8.111802101135254,-0.12569904327392578,2.8156661987304688,-0.4783182144165039,0.019174575805664062,0.4793834686279297,102
2021-03-07 10:56:33.866,6.6943912506103525,-1.1540403366088867,1.1995315551757812,-0.987529754638672,-1.1047124862670898,-1.5148515701293943,102
2021-03-07 10:56:33.966,7.296551704406737,0.5363168716430664,1.8268308639526367,1.3923425674438477,-1.3465347290039062,-2.71970272064209,102
2021-03-07 10:56:34.066,8.488900184631348,-0.5578651428222656,2.5247621536254883,0.3930940628051758,-0.15659809112548828,-1.2123069763183594,102
2021-03-07 10:56:34.166,12.111437797546387,-3.616551399230957,6.553129196166992,-2.9753742218017583,0.6508960723876953,-0.2673892974853516,102
2021-03-07 10:56:34.266,9.529212951660156,-0.33280372619628906,6.082653999328612,-1.0152273178100586,0.4740562438964844,0.6679410934448242,102
2021-03-07 10:56:34.366,7.763435363769531,-0.9050350189208984,3.423811912536621,0.021305084228515625,-0.3611354827880859,-0.0628519058227539,102
2021-03-07 10:56:34.466,6.189199447631836,-2.5187768936157227,2.308080673217773,-0.6487655639648438,-0.6072187423706055,-0.6839199066162109,102
2021-03-07 10:56:34.566,6.687209129333496,-0.463292121887207,2.6803903579711914,1.7002134323120115,0.3462209701538086,-0.4293146133422852,102
2021-03-07 10:56:34.666,9.313728332519533,-0.975666046142578,6.939805030822754,1.2250909805297852,0.7851238250732422,0.4687299728393554,102
2021-03-07 10:56:34.766,12.760286331176758,-4.267794609069823,6.559115409851074,-0.5475625991821289,0.7648830413818359,0.997117042541504,102
2021-03-07 10:56:34.866,7.812518119812013,-0.17238712310791016,4.022380828857422,0.7691440582275391,0.5528888702392578,1.042924880981445,102
2021-03-07 10:56:34.966,6.589043617248535,-1.3659334182739258,2.5247621536254883,-0.4474239349365233,0.1725778579711914,0.9023056030273438,102
2021-03-07 10:56:35.066,7.509642601013184,-1.6197261810302734,2.353571891784668,-1.4040613174438477,0.18109989166259768,-0.736119270324707,102
2021-03-07 10:56:35.166,8.209967613220215,-0.2346382141113281,2.7378530502319336,-1.3795595169067385,0.1608591079711914,-0.5017547607421875,102
2021-03-07 10:56:35.266,10.04517936706543,-0.6440591812133789,3.34360408782959,-1.4285631179809568,0.17151260375976562,-0.6871156692504883,102
2021-03-07 10:56:35.366,5.63372802734375,-0.038308143615722656,2.9509429931640625,0.5528888702392578,-0.003195762634277344,-0.5102767944335938,102
2021-03-07 10:56:35.466,5.769004821777344,-1.1145343780517578,3.4597263336181636,0.5528888702392578,-0.003195762634277344,-0.5102767944335938,102
2021-03-07 10:56:35.566,11.83609676361084,-2.510396957397461,6.627351760864258,0.5528888702392578,-0.003195762634277344,-0.5102767944335938,102
2021-03-07 10:56:35.666,11.83609676361084,-2.510396957397461,6.627351760864258,0.8841962814331055,0.5933694839477539,1.19952392578125,102
2021-03-07 10:56:35.766,11.83609676361084,-2.510396957397461,6.627351760864258,0.4602079391479492,1.0407943725585938,1.3284244537353516,102
2021-03-07 10:56:35.866,7.983708381652832,-1.8423938751220703,4.901080131530762,-0.05326461791992188,0.8362579345703125,1.3486652374267578,102
2021-03-07 10:56:35.966,8.99409294128418,-1.3120622634887695,3.1353025436401367,0.4687299728393554,0.6817893981933594,1.168630599975586,102
2021-03-07 10:56:36.066,7.11338996887207,-1.1827716827392578,3.098191261291504,-0.9981822967529296,0.0916147232055664,0.4112043380737305,102
2021-03-07 10:56:36.166,7.691607475280763,-1.1540403366088867,2.2063236236572266,-0.4431629180908203,-0.9044370651245116,-1.130279541015625,102
2021-03-07 10:56:36.266,9.470553398132324,0.13527584075927734,3.2370586395263667,0.5763254165649414,-0.8415842056274414,-0.7755355834960938,102
2021-03-07 10:56:36.366,9.92546558380127,-0.1448535919189453,3.9361867904663086,-1.6522750854492188,-0.33769893646240234,-1.3465347290039062,102
2021-03-07 10:56:36.466,7.907092094421388,-1.2246713638305664,5.672036170959473,-0.9300041198730468,-0.15979385375976562,-1.660797119140625,102
2021-03-07 10:56:36.566,6.834456443786621,1.2450227737426758,3.8763303756713863,0.2375602722167969,-0.2727155685424805,-1.4274978637695312,102
2021-03-07 10:56:36.666,6.725517272949219,-1.4449443817138672,3.4405727386474614,-0.7467727661132812,-0.16512012481689453,-0.8298654556274414,102
2021-03-07 10:56:36.766,8.287781715393066,-1.8112688064575195,4.502432823181152,1.1015167236328125,0.4474239349365233,0.7414464950561523,102
2021-03-07 10:56:36.866,9.621392250061037,-1.6209230422973633,6.0814571380615225,1.850419998168945,1.3284244537353516,2.3116941452026367,102
2021-03-07 10:56:36.966,12.189251899719238,-4.456941604614258,8.038776397705076,-0.7616872787475586,1.5617246627807615,2.605715751647949,102
2021-03-07 10:56:37.066,9.021626472473145,-1.7071170806884766,4.962133407592773,0.9598321914672852,1.0535783767700195,2.4214191436767583,102
2021-03-07 10:56:37.166,10.362420082092283,0.22146987915039065,3.6608457565307617,0.08202743530273438,0.4048128128051758,1.1164302825927734,102
2021-03-07 10:56:37.266,7.886740684509277,-1.5024070739746094,2.5451135635375977,-1.003509521484375,-0.5986967086791992,-0.9374608993530272,102
2021-03-07 10:56:37.366,7.520416259765625,0.3495635986328125,2.390683174133301,-0.2066669464111328,-1.268768310546875,-2.10928726196289,102
2021-03-07 10:56:37.466,7.6018218994140625,0.39864635467529297,3.994847297668457,-0.4144001007080078,-1.2048501968383791,-2.0698719024658203,102
2021-03-07 10:56:37.566,8.287781715393066,-0.4656858444213867,3.8715419769287114,-1.8312454223632808,-0.5539541244506836,-2.522623062133789,102
2021-03-07 10:56:37.666,9.584280967712402,-0.7601814270019531,4.403070449829102,-0.3100013732910156,-0.11079025268554688,-2.3074331283569336,102
2021-03-07 10:56:37.766,8.207572937011719,-0.7721529006958008,4.3743391036987305,-0.2130584716796875,-0.0692434310913086,-1.0471868515014648,102
2021-03-07 10:56:37.866,8.528406143188478,-2.9413661956787114,4.6293296813964835,0.7414464950561523,0.2301034927368164,0.7233362197875977,102
2021-03-07 10:56:37.966,9.104228973388672,-3.274169921875,5.965334892272949,2.0261945724487305,1.0045747756958008,3.139430046081543,102
2021-03-07 10:56:38.066,10.607833862304688,-3.6440858840942383,6.5435523986816415,0.9832687377929688,1.7098007202148438,3.031834602355957,102
2021-03-07 10:56:38.166,10.109824180603027,-2.0758352279663086,5.237475395202637,0.06391716003417969,1.2655725479125977,2.554581642150879,102
2021-03-07 10:56:38.266,12.353260040283205,-0.20111846923828125,3.4429664611816406,1.1132345199584959,0.9587669372558594,1.629903793334961,102
2021-03-07 10:56:38.366,8.638543128967285,-0.1987247467041016,2.349980354309082,-1.0152273178100586,-0.05326461791992188,-0.00852203369140625,102
2021-03-07 10:56:38.466,7.575484275817871,-0.6751852035522461,1.4293813705444336,-1.3039226531982422,-1.4317588806152344,-2.1508340835571294,102
2021-03-07 10:56:38.566,7.599427223205566,0.7793359756469727,2.734261512756348,0.9065675735473632,-1.5883569717407229,-2.263755798339844,102
2021-03-07 10:56:38.666,7.637736320495605,0.4956140518188477,3.8727388381958012,-1.5979452133178709,-0.912959098815918,-1.8482894897460935,102
2021-03-07 10:56:38.766,10.328900337219238,-1.8256340026855469,5.306909561157227,-1.5350923538208008,-0.10013771057128906,-1.9303178787231443,102
2021-03-07 10:56:38.866,10.156513214111328,0.4106178283691406,5.790553092956543,-0.34409046173095703,-0.052199363708496094,-1.5563983917236328,102
2021-03-07 10:56:38.966,7.387534141540527,-1.8160572052001955,4.580246925354004,-0.39202880859375,-0.00852203369140625,-0.3611354827880859,102
2021-03-07 10:56:39.066,7.646116256713867,-2.566661834716797,4.478490829467773,1.0365333557128906,0.5060157775878906,1.5116558074951172,102
2021-03-07 10:56:39.166,9.538789749145508,-2.8060894012451167,6.4789066314697275,1.8248529434204104,1.2325477600097656,2.935957908630371,102
2021-03-07 10:56:39.266,12.484945297241213,-3.847599029541016,6.942198753356934,-0.3217191696166992,1.411518096923828,2.834754943847656,102
2021-03-07 10:56:39.366,10.310943603515623,-1.3180475234985352,4.715523719787598,0.8841962814331055,0.8724775314331055,1.9281873703002932,102
2021-03-07 10:56:39.466,9.95539379119873,0.17478179931640625,3.4393749237060547,-0.2812376022338867,0.36007022857666016,0.8639554977416992,102
2021-03-07 10:56:39.566,7.556330680847168,-0.9194011688232422,1.8352108001708984,-0.6146755218505859,-0.9800729751586914,-1.0237503051757812,102
2021-03-07 10:56:39.666,8.177644729614258,0.2705526351928711,2.777358055114746,-0.9086980819702148,-1.491415023803711,-2.8848237991333012,102
2021-03-07 10:56:39.766,6.098217010498048,0.3914632797241211,3.1676254272460938,-0.9236116409301758,-0.9236116409301758,-2.64406681060791,102
2021-03-07 10:56:39.866,10.163695335388184,0.0,3.5459203720092773,-1.5404186248779297,0.1448802947998047,-2.7175722122192383,102
2021-03-07 10:56:39.966,10.852049827575684,-0.5830049514770508,5.066285133361816,-1.1068429946899414,0.1661853790283203,-1.4818277359008791,102
2021-03-07 10:56:40.066,9.90391731262207,-1.4724788665771484,4.51201057434082,-0.26206302642822266,-0.1502065658569336,-0.3579397201538086,102
2021-03-07 10:56:40.166,7.270215034484862,-2.6516590118408203,3.8571758270263667,0.4303798675537109,-0.232234001159668,0.8937835693359375,102
2021-03-07 10:56:40.266,7.051138877868652,-3.017982482910156,4.15286922454834,1.407257080078125,0.5454311370849609,2.9519376754760738,102
2021-03-07 10:56:40.366,9.203591346740724,-3.1353025436401367,5.6768245697021475,2.0144758224487305,1.1366710662841797,3.1980209350585938,102
2021-03-07 10:56:40.466,14.335719108581545,-3.0108003616333012,7.4162654876708975,-0.09374523162841797,1.1228227615356443,2.485337257385254,102
2021-03-07 10:56:40.566,11.144150733947754,0.01795673370361328,3.9469614028930655,1.1750221252441406,0.6455698013305664,1.545745849609375,102
2021-03-07 10:56:40.666,9.647729873657227,0.22745609283447266,3.189173698425293,-0.5230598449707031,-0.10759449005126953,0.33663368225097656,102
2021-03-07 10:56:40.766,6.751853942871094,-0.7925043106079102,1.1708002090454102,-0.991790771484375,-1.3582534790039062,-1.9431009292602541,102
2021-03-07 10:56:40.866,6.427430152893066,0.5423030853271484,1.8974618911743164,1.1292142868041992,-1.4179096221923828,-2.818775177001953,102
2021-03-07 10:56:40.966,7.383942604064941,-0.20111846923828125,3.3998699188232417,0.009587287902832031,-0.4261178970336914,-0.9331998825073242,102
2021-03-07 10:56:41.066,10.934652328491213,-1.7538061141967771,6.000051498413086,0.10013771057128906,-0.4506196975708008,-0.8788690567016602,102
2021-03-07 10:56:41.166,10.871203422546387,0.3543519973754883,7.156486511230469,0.5955009460449219,-0.2886953353881836,0.13422679901123047,102
2021-03-07 10:56:41.266,7.553936004638673,-2.0710468292236333,4.297722816467285,0.5955009460449219,-0.2886953353881836,0.13422679901123047,102
2021-03-07 10:56:41.366,9.373584747314453,-2.563070297241211,6.611788749694824,-0.2130584716796875,1.0365333557128906,2.384134292602539,102
2021-03-07 10:56:41.466,11.372804641723633,-2.758204460144043,7.4426021575927725,-0.0809621810913086,0.974745750427246,2.37454605102539,102
2021-03-07 10:56:41.566,11.372804641723633,-2.758204460144043,7.4426021575927725,0.09374523162841797,0.9236116409301758,2.3521747589111333,102
2021-03-07 10:56:41.666,8.560729026794434,0.059856414794921875,3.0479116439819336,0.2908258438110352,0.8841962814331055,2.3234119415283203,102
2021-03-07 10:56:41.766,8.220741271972656,-0.005985260009765625,2.8288354873657227,0.5709991455078125,0.566737174987793,1.3369474411010742,102
2021-03-07 10:56:41.866,7.978919982910156,-0.1101360321044922,2.65285587310791,-0.8234739303588867,-0.32065391540527344,-0.3792448043823242,102
2021-03-07 10:56:41.966,7.393519401550293,-0.5686397552490234,2.1392841339111333,-1.0503826141357422,-1.5574636459350586,-2.510904312133789,102
2021-03-07 10:56:42.066,6.7662200927734375,0.5997657775878906,2.559478759765625,0.4474239349365233,-0.987529754638672,-2.0421733856201167,102
2021-03-07 10:56:42.166,9.013246536254883,0.16520404815673828,3.2322702407836914,-2.27227783203125,-0.2492790222167969,-1.6629276275634766,102
2021-03-07 10:56:42.266,10.482133865356444,-2.278151512145996,5.7342872619628915,-0.9523754119873048,0.2482137680053711,-1.4370851516723633,102
2021-03-07 10:56:42.366,10.518048286437988,0.6344823837280273,4.816082954406738,-0.7723398208618164,-0.042611122131347656,-1.3944730758666992,102
2021-03-07 10:56:42.466,6.6105918884277335,-3.1640338897705083,3.301704406738281,0.2556705474853516,-0.184295654296875,-0.17151260375976562,102
2021-03-07 10:56:42.566,6.786571502685548,-2.2123088836669917,3.1664276123046875,1.1952629089355469,0.31319713592529297,1.4967412948608398,102
2021-03-07 10:56:42.666,9.999688148498537,-3.950552940368652,5.3440208435058585,2.379873275756836,1.2048501968383791,2.207294464111328,102
2021-03-07 10:56:42.766,11.47695541381836,-3.0359401702880864,7.887937545776367,-0.026632308959960938,1.4967412948608398,1.8909015655517576,102
2021-03-07 10:56:42.866,9.641743659973145,-1.5335321426391602,4.816082954406738,0.26206302642822266,0.8128213882446289,2.0464353561401367,102
2021-03-07 10:56:42.966,10.59825611114502,-0.3351984024047852,3.8643589019775386,0.8128213882446289,0.27484607696533203,1.2016544342041016,102
2021-03-07 10:56:43.066,7.868782997131348,-0.7637729644775391,1.3982563018798828,-1.3358821868896484,-0.4964275360107422,-0.2578010559082031,102
2021-03-07 10:56:43.166,6.969733238220215,-0.8451786041259766,0.6751852035522461,-0.3068046569824219,-1.756673812866211,-1.8163309097290041,102
2021-03-07 10:56:43.266,8.399115562438965,0.4680805206298828,2.6145477294921875,0.5933694839477539,-1.1633033752441406,-1.0834064483642578,102
2021-03-07 10:56:43.366,10.328900337219238,0.02513980865478516,3.4585294723510738,-2.2690820693969727,-0.07883167266845703,-1.5777044296264648,102
2021-03-07 10:56:43.466,9.69681167602539,-2.3607540130615234,7.1062068939208975,-1.0599699020385742,0.4911012649536133,-1.5510721206665041,102
2021-03-07 10:56:43.566,8.073493957519531,1.1241111755371094,5.70316219329834,-0.3643312454223633,0.08415794372558594,-1.5574636459350586,102
2021-03-07 10:56:43.666,6.264618873596191,-2.322445869445801,4.072660446166991,-0.15979385375976562,-0.0745706558227539,-0.4772529602050781,102
2021-03-07 10:56:43.766,7.018815994262695,-2.1680154800415044,4.2534284591674805,1.3135108947753906,0.487905502319336,1.6203165054321291,102
2021-03-07 10:56:43.866,9.618998527526855,-2.6360960006713867,5.8360443115234375,1.5713129043579102,0.976877212524414,2.480010986328125,102
2021-03-07 10:56:43.966,11.979753494262695,-3.3160696029663086,6.500454902648926,0.2066669464111328,0.8330621719360352,2.346848487854004,102
2021-03-07 10:56:44.066,10.71437931060791,-1.2510080337524414,4.0774497985839835,1.1963281631469729,0.509211540222168,1.6586666107177734,102
2021-03-07 10:56:44.166,7.802940368652344,-0.38547801971435547,3.098191261291504,-0.566737174987793,0.08841896057128906,0.5113420486450195,102
2021-03-07 10:56:44.266,7.1349382400512695,-1.1576309204101562,1.2545995712280271,-1.2655725479125977,-1.1579771041870115,-1.0780801773071291,102
2021-03-07 10:56:44.366,8.757059097290039,0.2023153305053711,1.1444625854492188,1.768392562866211,-1.3539915084838867,-1.2815513610839844,102
2021-03-07 10:56:44.466,7.97652530670166,1.0989713668823242,2.8396091461181636,-1.3838205337524414,-0.4080085754394531,-1.5095252990722656,102
2021-03-07 10:56:44.566,9.343656539916992,-2.318854331970215,6.1688480377197275,-1.9143381118774412,0.1725778579711914,-1.7098007202148438,102
2021-03-07 10:56:44.666,9.239505767822266,1.0893945693969729,5.776186943054199,-0.7009649276733398,0.11079025268554688,-1.2708988189697266,102
2021-03-07 10:56:44.766,6.465738296508789,0.057461738586425774,3.860767364501953,-0.7350540161132812,-0.21518993377685547,-0.9033708572387696,102
2021-03-07 10:56:44.866,7.524007797241211,-1.801691055297852,4.353987693786621,0.3856372833251953,-0.013848304748535156,0.20560169219970706,102
2021-03-07 10:56:44.966,8.709174156188965,-0.6632137298583984,5.263812065124512,1.4434766769409182,0.6370468139648438,2.1540298461914062,102
2021-03-07 10:56:45.066,10.76585578918457,-2.598984718322754,6.239479064941406,0.10226821899414062,0.9140243530273438,2.5652341842651367,102
2021-03-07 10:56:45.166,9.79617404937744,-2.572648048400879,5.70555591583252,0.30147838592529297,0.5241260528564453,2.208359718322754,102
2021-03-07 10:56:45.266,9.872791290283203,-0.3256206512451172,3.6309175491333012,0.5795211791992188,0.05326461791992188,0.7467727661132812,102
2021-03-07 10:56:45.366,7.140923500061035,-0.5494852066040039,2.540325164794922,-1.3795595169067385,-0.5539541244506836,-1.0003137588500977,102
2021-03-07 10:56:45.466,6.6943912506103525,-0.5542745590209961,1.256993293762207,0.7126827239990234,-0.843714714050293,-1.7790451049804688,102
2021-03-07 10:56:45.566,8.978529930114746,0.3567466735839844,2.541522026062012,-1.0375986099243164,-0.005326271057128906,-0.943852424621582,102
2021-03-07 10:56:45.666,10.128978729248047,-1.0427064895629885,4.297722816467285,-2.262690544128418,0.3281106948852539,-1.0045747756958008,102
2021-03-07 10:56:45.766,9.21675968170166,-1.204319953918457,6.462146759033202,-0.5028200149536133,0.11505126953125,-1.018423080444336,102
2021-03-07 10:56:45.866,8.031594276428223,-0.22266674041748047,3.604579925537109,-0.6935081481933594,-0.3856372833251953,-1.230417251586914,102
2021-03-07 10:56:45.966,5.778581619262695,-2.9341831207275386,2.9617176055908203,0.4697952270507813,-0.4484891891479492,-0.9491786956787108,102
2021-03-07 10:56:46.066,6.7698116302490225,-1.6568374633789062,3.1065711975097656,1.9548196792602541,0.551823616027832,1.1654348373413086,102
2021-03-07 10:56:46.166,10.30615520477295,-3.114951133728028,5.239870071411133,0.4186611175537109,1.0951251983642578,1.772653579711914,102
2021-03-07 10:56:46.266,12.850071907043455,-4.3108911514282235,9.410696029663086,0.1906881332397461,0.8639554977416992,1.837636947631836,102
2021-03-07 10:56:46.366,9.610618591308594,0.026336669921875,4.619752883911133,1.2165689468383791,0.4293146133422852,1.0972557067871094,102
2021-03-07 10:56:46.466,7.557527542114258,-1.1001691818237305,3.172413825988769,-0.2524747848510742,-0.18003463745117188,0.3611354827880859,102
2021-03-07 10:56:46.566,6.778191566467285,-1.4066362380981443,1.0259466171264648,-0.4889707565307617,-1.2133731842041016,-0.3153276443481445,102
2021-03-07 10:56:46.666,7.507247924804687,-0.5506830215454102,1.3144559860229492,0.7105522155761719,-1.054643630981445,-0.04154586791992188,102
2021-03-07 10:56:46.766,9.829694747924805,-0.6668052673339844,2.115341186523437,-1.4605216979980469,0.1725778579711914,-1.0013790130615234,102
2021-03-07 10:56:46.866,11.2459077835083,-1.8208456039428709,6.8835391998291025,-1.7183237075805664,0.9300041198730468,-1.4658479690551758,102
2021-03-07 10:56:46.966,7.198386192321777,1.1121397018432615,6.42503547668457,1.6224470138549805,0.6466350555419922,1.977190971374512,102
2021-03-07 10:56:47.066,7.087052345275879,-0.3244237899780273,3.172413825988769,1.9356441497802732,0.8884572982788086,2.416092872619629,102
2021-03-07 10:56:47.166,6.577072143554688,-1.0247488021850586,3.51479434967041,0.3408946990966797,1.1910018920898438,2.7782936096191406,102
2021-03-07 10:56:47.266,8.427846908569336,-2.0973844528198238,3.296916007995605,0.3408946990966797,1.1910018920898438,2.7782936096191406,102
2021-03-07 10:56:47.366,10.49769687652588,-1.0403118133544922,3.9756927490234375,-0.4942970275878906,-0.16405487060546875,0.196014404296875,102
2021-03-07 10:56:47.466,7.667664527893066,-0.28252410888671875,3.2598047256469727,-0.886326789855957,-0.3867025375366211,0.1725778579711914,102
2021-03-07 10:56:47.566,7.667664527893066,-0.28252410888671875,3.2598047256469727,-1.079145431518555,-0.6018924713134766,0.12890052795410156,102
2021-03-07 10:56:47.666,9.195211410522461,0.08260154724121094,2.230266571044922,-0.2695198059082031,-1.0834064483642578,-0.6658105850219727,102
2021-03-07 10:56:47.766,8.68523120880127,-0.1101360321044922,2.6516590118408203,-0.28549957275390625,-0.5944347381591797,-1.07275390625,102
2021-03-07 10:56:47.866,9.141340255737305,-0.15682411193847656,3.1388940811157227,-1.3252286911010742,0.16405487060546875,-1.5681161880493164,102
2021-03-07 10:56:47.966,8.04356575012207,-0.28012943267822266,6.1784257888793945,-0.6349163055419922,0.2812376022338867,-1.621381759643555,102
2021-03-07 10:56:48.066,8.915081024169922,1.765777587890625,7.282186508178711,-0.00852203369140625,-0.2311687469482422,-1.4211053848266602,102
2021-03-07 10:56:48.166,6.148496627807617,-0.6775789260864258,4.088223457336427,0.3771142959594727,-0.3856372833251953,-0.35367774963378906,102
2021-03-07 10:56:48.266,7.344437599182129,-1.974079132080078,3.89189338684082,1.2559843063354492,0.5166683197021484,1.715127944946289,102
2021-03-07 10:56:48.366,9.654911994934082,-2.490045547485352,4.857982635498047,1.018423080444336,1.087667465209961,1.9921045303344729,102
2021-03-07 10:56:48.466,10.782615661621094,-3.3902921676635738,7.589850425720215,-0.5539541244506836,0.8799352645874023,2.2584285736083984,102
2021-03-07 10:56:48.566,9.188028335571287,-1.0522832870483398,4.598203659057617,1.0312070846557615,0.4580774307250977,1.5617246627807615,102
2021-03-07 10:56:48.666,10.014053344726562,-0.5075855255126953,3.6979570388793945,-0.5326480865478516,-0.026632308959960938,0.031958580017089844,102
2021-03-07 10:56:48.766,7.212752342224121,-1.012777328491211,1.8818998336791992,-1.3539915084838867,-0.7776660919189453,-1.4157791137695312,102
2021-03-07 10:56:48.866,7.2331037521362305,-0.35315513610839844,1.5909948348999023,0.4751214981079102,-0.7499685287475586,-2.0293903350830083,102
2021-03-07 10:56:48.966,8.78579044342041,0.4608974456787109,3.5004291534423833,-1.4509344100952148,-0.005326271057128906,-1.6810379028320312,102
2021-03-07 10:56:49.066,9.4968900680542,-0.6751852035522461,5.036355972290039,-1.3465347290039062,0.16831684112548828,-1.319902420043945,102
2021-03-07 10:56:49.166,8.826493263244629,-0.8499670028686523,7.307326316833496,-0.5379743576049805,-0.09587669372558594,-1.4189748764038086,102
2021-03-07 10:56:49.266,7.811320304870605,-0.3603382110595703,4.539544105529785,0.02982807159423828,-0.4197263717651367,-1.0951251983642578,102
2021-03-07 10:56:49.366,6.7889652252197275,-1.9154195785522459,3.6979570388793945,0.7883195877075195,0.030893325805664062,0.5582151412963867,102
2021-03-07 10:56:49.466,7.110995292663574,-2.0087957382202153,4.218711853027344,1.5691814422607422,0.7105522155761719,2.6845474243164062,102
2021-03-07 10:56:49.566,9.733922958374023,-2.4589195251464844,6.137722969055176,-0.2077322006225586,0.6977691650390625,2.9796352386474614,102
2021-03-07 10:56:49.666,12.444242477416992,-2.70193862915039,6.01322078704834,2.0677404403686523,0.6423740386962891,1.994235038757324,102
2021-03-07 10:56:49.766,13.03562831878662,0.2549896240234375,4.763408660888672,-0.10013771057128906,0.6200027465820312,0.4303798675537109,102
2021-03-07 10:56:49.866,8.482914924621582,-0.8834867477416992,3.923018455505371,-1.0269460678100586,-0.6018924713134766,-1.3039226531982422,102
2021-03-07 10:56:49.966,6.298139572143555,0.1915416717529297,2.4014568328857417,0.6018924713134766,-1.146259307861328,-1.784372329711914,102
2021-03-07 10:56:50.066,6.278985023498535,1.1468572616577148,1.4844493865966797,-0.4325103759765625,-1.0269460678100586,-0.8671512603759766,102
2021-03-07 10:56:50.166,8.900715827941895,-0.926584243774414,3.0562915802001958,-0.4346408843994141,-0.8383884429931641,-0.7638177871704102,102
2021-03-07 10:56:50.266,9.296968460083008,-0.8822898864746094,5.6133766174316415,0.4250526428222656,-0.20986270904541016,-1.2112417221069336,102
2021-03-07 10:56:50.366,9.092257499694824,-0.2358360290527344,4.972908020019531,0.1789693832397461,0.4857749938964844,-0.20347118377685547,102
2021-03-07 10:56:50.466,6.119765281677246,-1.1468572616577148,5.2422637939453125,0.4207916259765625,0.8362579345703125,1.2485275268554688,102
2021-03-07 10:56:50.566,6.7698116302490225,-2.201535224914551,7.294157028198242,1.0205535888671875,1.368906021118164,1.030141830444336,102
2021-03-07 10:56:50.666,11.679271697998047,-0.7637729644775391,6.532777786254883,-0.66900634765625,0.9513101577758788,1.1579771041870115,102
2021-03-07 10:56:50.766,10.362420082092283,-2.0387248992919917,6.008431434631348,0.943852424621582,0.25140953063964844,1.1238880157470703,102
2021-03-07 10:56:50.866,9.030006408691406,-0.4525175094604492,2.9748859405517583,-0.3771142959594727,-0.1320962905883789,0.2961521148681641,102
2021-03-07 10:56:50.966,6.630943298339844,-0.8583469390869141,0.922992706298828,-1.2666378021240234,-1.0162925720214844,-0.8394536972045898,102
2021-03-07 10:56:51.066,7.140923500061035,-0.6584253311157227,1.4832525253295898,1.2975311279296875,-0.9672889709472656,-0.805363655090332,102
2021-03-07 10:56:51.166,8.362004280090332,0.4513206481933594,2.6696157455444336,-1.1111040115356443,-0.009587287902832031,-0.4719257354736328,102
2021-03-07 10:56:51.266,9.583084106445312,-0.7290563583374023,4.9322052001953125,-0.9662237167358398,0.2354297637939453,-0.40055084228515625,102
2021-03-07 10:56:51.366,8.73431396484375,-0.183161735534668,10.309746742248537,-0.4218568801879883,-0.0170440673828125,-0.4548816680908203,102
2021-03-07 10:56:51.466,5.967729568481445,0.7901105880737305,4.490461349487305,0.033023834228515625,-0.5752601623535156,-0.3856372833251953,102
2021-03-07 10:56:51.566,5.298529624938965,-1.664020538330078,4.2785682678222665,0.705225944519043,-0.2950868606567383,0.15446758270263672,102
2021-03-07 10:56:51.666,6.92543888092041,-0.9493293762207032,3.5794401168823238,0.7702093124389648,0.6146755218505859,0.4144001007080078,102
2021-03-07 10:56:51.766,9.838074684143066,-1.2234735488891602,5.87315559387207,0.11505126953125,0.8447799682617188,0.4985580444335938,102
2021-03-07 10:56:51.866,11.488926887512207,-1.6233177185058594,7.933428764343263,0.4420976638793945,0.4847097396850586,0.5475625991821289,102
2021-03-07 10:56:51.966,8.701991081237793,-0.6536369323730469,3.911046981811523,-0.09907245635986328,0.3217191696166992,0.2524747848510742,102
2021-03-07 10:56:52.066,6.724320411682129,-0.9996089935302734,2.6648273468017583,-0.8980445861816406,-0.34409046173095703,0.1043987274169922,102
2021-03-07 10:56:52.166,6.561509132385254,-1.2522048950195312,1.7561998367309568,-0.40055084228515625,-0.8618249893188477,-0.6722021102905273,102
2021-03-07 10:56:52.266,8.512843132019043,-0.1843585968017578,2.1668176651000977,0.19921016693115234,-0.2354297637939453,-0.4964275360107422,102
2021-03-07 10:56:52.366,8.971346855163574,-0.9194011688232422,3.492049217224121,-0.8351926803588867,0.4431629180908203,-0.1970796585083008,102
2021-03-07 10:56:52.466,10.084684371948242,-1.0295372009277344,6.319687843322754,-0.999248504638672,0.3632659912109375,0.0926799774169922,102
2021-03-07 10:56:52.566,8.231515884399414,-0.2813272476196289,6.963747978210449,0.03621959686279297,-0.2194509506225586,-0.382441520690918,102
2021-03-07 10:56:52.666,7.0379695892333975,-0.4333629608154297,4.0020294189453125,0.3526124954223633,-0.551823616027832,-0.8160171508789062,102
2021-03-07 10:56:52.766,5.449368476867676,-1.1588287353515625,3.15325927734375,0.243952751159668,-0.16298961639404294,-0.4932317733764648,102
2021-03-07 10:56:52.866,6.216733932495117,-0.7841243743896484,3.711125373840332,0.6988344192504883,0.4346408843994141,0.3121318817138672,102
2021-03-07 10:56:52.966,9.070709228515623,-0.8451786041259766,6.173636436462402,-1.5052642822265625,-0.3291759490966797,-0.499624252319336,102
2021-03-07 10:56:53.066,11.567937850952148,-1.5311384201049805,6.956564903259277,-1.3433389663696291,-0.6061534881591797,-0.5646066665649414,102
2021-03-07 10:56:53.166,9.90511417388916,-1.4724788665771484,4.450956344604492,-0.831995964050293,-0.7872543334960938,-0.6125450134277344,102
2021-03-07 10:56:53.266,6.757840156555176,-0.6775789260864258,2.9078464508056636,-0.12463951110839845,-0.8096256256103516,-0.5582151412963867,102
2021-03-07 10:56:53.366,10.870006561279297,-0.8128557205200195,3.2262849807739262,-0.5219945907592773,0.3238496780395508,-0.8192129135131836,102
2021-03-07 10:56:53.466,11.334495544433596,-1.4688873291015625,4.330045700073241,-0.5219945907592773,0.3238496780395508,-0.8192129135131836,102
2021-03-07 10:56:53.566,10.750292778015137,-2.135692596435547,6.027585983276367,-0.5219945907592773,0.3238496780395508,-0.8192129135131836,102
2021-03-07 10:56:53.666,5.972517967224121,-0.33280372619628906,3.9972410202026367,-0.021305084228515625,-0.22158145904541016,-1.0003137588500977,102
2021-03-07 10:56:53.766,5.972517967224121,-0.33280372619628906,3.9972410202026367,-0.1832304000854492,-0.5752601623535156,-0.726531982421875,102
2021-03-07 10:56:53.866,5.972517967224121,-0.33280372619628906,3.9972410202026367,1.007770538330078,-0.02450180053710937,-0.06498241424560547,102
2021-03-07 10:56:53.966,7.599427223205566,-0.5949764251708984,3.6225376129150386,1.178217887878418,0.6679410934448242,1.1228227615356443,102
2021-03-07 10:56:54.066,10.269043922424316,-1.0091867446899414,5.432608604431152,0.02982807159423828,0.6796588897705078,1.891966819763184,102
2021-03-07 10:56:54.166,10.915497779846193,-2.718698501586914,6.7662200927734375,0.9055023193359376,0.7691440582275391,1.139866828918457,102
2021-03-07 10:56:54.266,9.518438339233398,-0.7230701446533203,4.5371503829956055,-0.7425117492675781,0.5283870697021484,0.2183856964111328,102
2021-03-07 10:56:54.366,6.171242713928223,-0.7146902084350586,3.1915674209594727,-1.1174955368041992,-0.8415842056274414,-0.540104866027832,102
2021-03-07 10:56:54.466,8.230319023132324,-0.5315284729003906,2.814469337463379,0.33769893646240234,-0.7808618545532227,-0.401616096496582,102
2021-03-07 10:56:54.566,9.210774421691896,0.15921878814697266,2.4864540100097656,-1.5276355743408203,-0.2705850601196289,-1.0088357925415041,102
2021-03-07 10:56:54.666,10.00327968597412,-0.12091064453125,3.9409761428833012,-0.6018924713134766,0.06817817687988281,-1.4669132232666016,102
2021-03-07 10:56:54.766,9.103032112121582,1.3132591247558594,7.090643882751465,-0.0926799774169922,-0.1214437484741211,-1.6735811233520508,102
2021-03-07 10:56:54.866,6.5543270111083975,1.5514898300170898,3.921821594238281,-0.34941673278808594,-0.1448802947998047,-0.7712745666503906,102
2021-03-07 10:56:54.966,5.959349632263184,-1.3862848281860352,4.664046287536621,0.987529754638672,0.4197263717651367,1.1153650283813477,102
2021-03-07 10:56:55.066,8.454183578491211,-1.788522720336914,5.109381675720215,0.6498308181762695,0.8501062393188477,2.0389776229858403,102
2021-03-07 10:56:55.166,11.997710227966307,-1.7214832305908203,6.577072143554688,0.3078699111938477,0.6594181060791016,2.2605600357055664,102
2021-03-07 10:56:55.266,10.251086235046387,-2.087806701660156,4.541938781738281,0.6839199066162109,0.3398294448852539,1.034402847290039,102
2021-03-07 10:56:55.366,8.792973518371582,-0.5722312927246094,3.6081714630126953,-0.5635414123535156,-0.37178802490234375,-0.5028200149536133,102
2021-03-07 10:56:55.466,6.651294708251952,-0.519556999206543,1.8112688064575195,-0.2940216064453125,-1.0983209609985352,-1.3976688385009766,102
2021-03-07 10:56:55.566,7.036772727966309,-0.34836673736572266,1.6556406021118164,0.3930940628051758,-0.5646066665649414,0.1832304000854492,102
2021-03-07 10:56:55.666,8.694808006286621,-0.0945730209350586,2.448145866394043,-1.1121692657470703,0.07244014739990234,-0.12677001953125,102
2021-03-07 10:56:55.766,10.919089317321776,-1.3324136734008791,5.035159111022949,-0.7627525329589844,0.1555328369140625,-0.8554325103759766,102
2021-03-07 10:56:55.866,8.828887939453125,0.10175609588623047,6.49566650390625,0.2247772216796875,-0.06498241424560547,-1.1068429946899414,102
2021-03-07 10:56:55.966,6.095823287963867,0.678776741027832,4.090618133544922,-0.7712745666503906,-0.03941535949707031,-0.5454311370849609,102
2021-03-07 10:56:56.066,5.812101364135742,-2.0279502868652344,4.193572044372559,0.3675270080566406,0.2556705474853516,0.0809621810913086,102
2021-03-07 10:56:56.166,7.535979270935059,-1.3348073959350586,5.1824073791503915,1.4349546432495115,0.5166683197021484,0.635981559753418,102
2021-03-07 10:56:56.266,9.793780326843262,-0.5973711013793945,5.188392639160156,0.3100013732910156,0.5848474502563477,1.4370851516723633,102
2021-03-07 10:56:56.366,10.678464889526367,-2.6037731170654297,5.367963790893555,0.2833681106567383,0.497492790222168,1.2197647094726562,102
2021-03-07 10:56:56.466,8.838464736938477,-1.8519706726074217,3.8212623596191406,-0.6487655639648438,0.2823028564453125,0.40055084228515625,102
2021-03-07 10:56:56.566,6.5734806060791025,-0.4776573181152344,2.4984254837036133,-0.8064289093017578,-0.3962898254394531,-0.10652923583984376,102
2021-03-07 10:56:56.666,7.507247924804687,-0.731450080871582,2.255406379699707,0.5454311370849609,-0.5614109039306641,-0.4378366470336914,102
2021-03-07 10:56:56.766,9.911099433898926,-0.27414417266845703,2.810877799987793,-1.030141830444336,-0.1374225616455078,-0.6998996734619141,102
2021-03-07 10:56:56.866,9.85603141784668,-0.4980087280273438,4.889108657836914,-1.3081846237182615,0.13529205322265625,-1.2751598358154297,102
2021-03-07 10:56:56.966,7.826883316040039,-1.2258682250976562,6.37355899810791,-0.578455924987793,-0.15979385375976562,-1.7790451049804688,102
2021-03-07 10:56:57.066,7.640130043029785,1.1372804641723633,4.555107116699219,-0.05326461791992188,-0.36007022857666016,-1.656536102294922,102
2021-03-07 10:56:57.166,6.076668739318848,-0.7565898895263672,3.0012226104736333,0.7936458587646484,0.15659809112548828,0.04474163055419922,102
2021-03-07 10:56:57.266,7.434222221374513,-1.67120361328125,3.744645118713379,1.3976688385009766,0.8564987182617188,1.4946107864379885,102
2021-03-07 10:56:57.366,11.022043228149414,-1.8004941940307615,5.919843673706055,0.2258424758911133,0.9587669372558594,1.8813142776489256,102
2021-03-07 10:56:57.466,10.831698417663574,-3.241847038269043,6.852414131164551,0.7968416213989258,0.8394536972045898,1.3337516784667969,102
2021-03-07 10:56:57.566,8.703187942504883,-1.355158805847168,3.679999351501465,-0.3408946990966797,0.3749837875366211,0.7286624908447266,102
2021-03-07 10:56:57.666,6.744671821594237,-0.6344823837280273,2.707923889160156,-1.1846094131469729,-0.7755355834960938,-0.11398601531982422,102
2021-03-07 10:56:57.766,8.54396915435791,-1.2198820114135742,1.7214832305908203,1.0056400299072266,-1.168630599975586,-0.5688676834106445,102
2021-03-07 10:56:57.866,10.489316940307617,0.3711118698120117,2.0662584304809566,-1.2314825057983398,-0.4847097396850586,-1.4967412948608398,102
2021-03-07 10:56:57.966,9.846454620361328,1.4820556640625,3.693168640136719,-0.8660860061645508,-0.1906881332397461,-1.8312454223632808,102
2021-03-07 10:56:58.066,8.028002738952638,0.8523616790771484,5.590630531311035,0.27484607696533203,-0.06072139739990234,-1.3774280548095703,102
2021-03-07 10:56:58.166,7.110995292663574,1.2905139923095703,4.421028137207031,-0.34835147857666016,-0.16298961639404294,-0.04474163055419922,102
2021-03-07 10:56:58.266,7.462953567504883,-1.5897979736328125,4.84242057800293,1.4370851516723633,0.6626138687133789,1.4733047485351562,102
2021-03-07 10:56:58.366,8.928250312805176,-2.4182167053222656,5.402680397033691,0.7297277450561523,1.3412084579467771,1.8291139602661133,102
2021-03-07 10:56:58.466,10.678464889526367,-1.9764728546142576,6.471724510192871,-0.4527511596679688,1.0003137588500977,2.622760772705078,102
2021-03-07 10:56:58.566,9.610618591308594,-1.8807020187377932,4.3503971099853525,0.7030954360961914,0.5038852691650391,1.748151779174805,102
2021-03-07 10:56:58.666,10.093064308166504,-0.2478065490722656,3.523174285888672,-0.7329235076904297,-0.2886953353881836,-0.3004131317138672,102
2021-03-07 10:56:58.766,7.509642601013184,-0.4848403930664063,1.6628236770629885,-0.7766008377075195,-1.0780801773071291,-1.772653579711914,102
2021-03-07 10:56:58.866,7.519219398498535,-0.5423030853271484,1.4640989303588867,0.5592803955078125,-0.8117561340332031,-1.1888704299926758,102
2021-03-07 10:56:58.966,8.396720886230469,0.4166030883789063,2.770174980163574,0.09694194793701172,-0.2428874969482422,-0.5294523239135742,102
2021-03-07 10:56:59.066,9.924267768859863,-0.920598030090332,4.51201057434082,0.045806884765625,-0.2258424758911133,-0.7254667282104492,102
2021-03-07 10:56:59.166,8.675653457641603,-0.4501228332519531,6.0192060470581055,0.774470329284668,0.2354297637939453,0.976877212524414,102
