TIMESTAMP,ACCEL_X,ACCEL_Y,ACCEL_Z,GYRO_X,GYRO_Y,GYRO_Z,ACTIVITY_ID
2021-01-19 12:47:08.453,-1.0391149520874023,-3.0108003616333012,9.006063461303711,-0.6935081481933594,-0.14807605743408206,-0.2546052932739258,104
2021-01-19 12:47:08.553,-1.0139751434326172,-3.2633962631225586,9.441822052001953,-0.27484607696533203,-0.1853609085083008,-0.08841896057128906,104
2021-01-19 12:47:08.653,-0.9086265563964844,-2.9724912643432617,9.089863777160645,0.06072139739990234,0.03835010528564453,0.04367637634277344,104
2021-01-19 12:47:08.753,-1.3360052108764648,-2.8779172897338867,9.633363723754883,0.23969173431396484,0.2354297637939453,0.09481048583984376,104
2021-01-19 12:47:08.853,-1.142068862915039,-2.935379981994629,9.395133018493652,-0.0692434310913086,-0.10120296478271484,0.021305084228515625,104
2021-01-19 12:47:08.953,-1.233051300048828,-2.966506004333496,9.221549034118652,-0.0010652542114257812,-0.02237033843994141,0.034089088439941406,104
2021-01-19 12:47:09.053,-1.2414312362670898,-2.947351455688477,9.444215774536133,-0.021305084228515625,0.04793834686279297,0.0287628173828125,104
2021-01-19 12:47:09.153,-1.231853485107422,-2.989251136779785,9.358022689819336,-0.013848304748535156,-0.01810932159423828,0.021305084228515625,104
2021-01-19 12:47:09.253,-1.236642837524414,-2.996434211730957,9.33647346496582,-0.014913558959960938,0.01810932159423828,0.012783050537109377,104
2021-01-19 12:47:09.353,-1.2438249588012695,-2.9605197906494136,9.438230514526367,-0.033023834228515625,-0.0021305084228515625,0.020239830017089844,104
2021-01-19 12:47:09.453,-1.195940017700195,-2.9485492706298833,9.37597942352295,-0.02450180053710937,0.005326271057128906,0.01810932159423828,104
2021-01-19 12:47:09.553,-1.3946647644042969,-3.1089649200439453,9.38316249847412,0.006391525268554688,0.012783050537109377,0.01810932159423828,104
2021-01-19 12:47:09.653,-1.166010856628418,-2.8288354873657227,9.358022689819336,-0.06711292266845703,-0.057525634765625,-0.012783050537109377,104
2021-01-19 12:47:09.753,-1.0846061706542969,-2.923408508300781,9.247885704040527,-0.03515434265136719,0.01810932159423828,0.042611122131347656,104
2021-01-19 12:47:09.853,-1.3348073959350586,-3.1472740173339844,9.23711109161377,0.0,0.057525634765625,0.05113410949707031,104
2021-01-19 12:47:09.953,-1.573038101196289,-3.0359401702880864,9.342459678649902,-0.007456779479980469,0.05113410949707031,0.03515434265136719,104
2021-01-19 12:47:10.053,-1.5155754089355469,-3.01199722290039,9.30774211883545,-0.06817817687988281,0.03621959686279297,0.09587669372558594,104
2021-01-19 12:47:10.153,-1.6700057983398438,-2.991645812988281,9.432244300842283,-0.007456779479980469,-0.012783050537109377,0.1608591079711914,104
2021-01-19 12:47:10.253,-1.6855688095092771,-2.9162263870239262,9.318516731262207,-0.07670116424560547,-0.06817817687988281,0.2311687469482422,104
2021-01-19 12:47:10.353,-1.5862064361572266,-3.2502269744873047,9.38316249847412,-0.07563591003417969,-0.10652923583984376,0.26206302642822266,104
2021-01-19 12:47:10.453,-1.4198045730590818,-3.2562131881713867,9.262250900268556,-0.0980072021484375,-0.12463951110839845,0.16298961639404294,104
2021-01-19 12:47:10.553,-1.3503704071044922,-3.420221328735352,9.239505767822266,-0.03941535949707031,-0.12677001953125,0.11718177795410155,104
2021-01-19 12:47:10.653,-1.2522048950195312,-3.3376188278198238,9.213168144226074,-0.05965614318847656,-0.1320962905883789,0.10120296478271484,104
2021-01-19 12:47:10.753,-1.1552371978759766,-3.1760053634643555,9.113805770874023,-0.07883167266845703,-0.08841896057128906,0.10226821899414062,104
2021-01-19 12:47:10.853,-1.2797393798828125,-3.429798126220703,9.330488204956056,-0.030893325805664062,-0.02769756317138672,0.12570476531982422,104
2021-01-19 12:47:10.953,-1.05108642578125,-3.617748260498047,8.968952178955078,-0.23436450958251956,-0.05326461791992188,0.2183856964111328,104
2021-01-19 12:47:11.053,-0.6261024475097656,-3.5459203720092773,8.710371017456055,-0.1384878158569336,0.07883167266845703,0.2301034927368164,104
2021-01-19 12:47:11.153,-1.784931182861328,-3.7171106338500977,9.353233337402344,-0.2066669464111328,0.4186611175537109,0.08202743530273438,104
2021-01-19 12:47:11.253,-2.5606765747070312,-3.335224151611328,11.639765739440918,0.3408946990966797,0.647700309753418,-0.1853609085083008,104
2021-01-19 12:47:11.353,-2.8970718383789062,-1.8292255401611328,9.188028335571287,0.20453643798828125,0.3611354827880859,-0.1970796585083008,104
2021-01-19 12:47:11.453,-1.7370462417602541,-1.7813396453857422,6.602211952209473,0.5081462860107422,0.1970796585083008,-0.04687213897705078,104
2021-01-19 12:47:11.553,0.08739089965820312,-4.929811477661133,10.808952331542967,-1.1633033752441406,0.1619243621826172,0.07670116424560547,104
2021-01-19 12:47:11.653,-2.4768762588500977,-3.72189998626709,8.713962554931639,-0.32598018646240234,0.2652587890625,-0.15233707427978516,104
2021-01-19 12:47:11.753,-4.0978002548217765,-1.8519706726074217,9.490904808044434,0.5614109039306641,0.3962898254394531,0.3611354827880859,104
2021-01-19 12:47:11.853,-5.180012702941895,-1.3635387420654297,8.423057556152344,-0.15446758270263672,0.7329235076904297,0.15127182006835938,104
2021-01-19 12:47:11.953,-5.317683219909668,-2.8922834396362305,8.449395179748535,-0.05326461791992188,0.8799352645874023,0.8192129135131836,104
2021-01-19 12:47:12.053,-5.731893539428711,-2.9904489517211914,8.909095764160156,0.7712745666503906,0.470860481262207,0.6892461776733398,104
2021-01-19 12:47:12.153,-5.190787315368652,-1.7131032943725586,8.719947814941406,0.3962898254394531,-0.4719257354736328,-0.1331615447998047,104
2021-01-19 12:47:12.253,-3.1772022247314453,-1.8076772689819336,9.64653205871582,0.497492790222168,-1.2400054931640625,-0.3046741485595703,104
2021-01-19 12:47:12.353,-4.01400089263916,-0.061053276062011726,9.428653717041016,0.2609968185424805,-0.774470329284668,-0.3334379196166992,104
2021-01-19 12:47:12.453,-2.7893295288085938,0.2621726989746094,9.838074684143066,0.07137489318847656,0.03515434265136719,-0.3696575164794922,104
2021-01-19 12:47:12.553,-4.983682632446289,-0.37949180603027344,10.733532905578613,-0.3078699111938477,-0.1736431121826172,-0.3163928985595703,104
2021-01-19 12:47:12.653,-3.01199722290039,-2.266180992126465,10.838881492614746,-0.12996578216552734,-0.5646066665649414,-0.0692434310913086,104
2021-01-19 12:47:12.753,-1.7753543853759766,-1.2534027099609375,9.337671279907227,-0.2183856964111328,-0.8991098403930664,-0.38350677490234375,104
2021-01-19 12:47:12.853,-1.3012876510620115,-0.7218732833862305,8.662485122680664,-0.11398601531982422,-0.9257421493530272,-0.38350677490234375,104
2021-01-19 12:47:12.953,-0.15921878814697266,-1.784931182861328,7.632946968078612,-0.31319713592529297,-0.7180099487304688,-0.6540918350219727,104
2021-01-19 12:47:13.053,0.36392974853515625,-2.0961866378784184,8.541574478149414,0.4165306091308594,-0.35367774963378906,-0.7989721298217773,104
2021-01-19 12:47:13.153,-1.5862064361572266,0.1891469955444336,8.888744354248047,0.007456779479980469,0.19388389587402344,-0.738250732421875,104
2021-01-19 12:47:13.253,0.023941993713378903,-1.5227584838867188,9.410696029663086,-0.7520990371704102,0.2024059295654297,-0.5582151412963867,104
2021-01-19 12:47:13.353,0.646453857421875,-4.204345703125,16.221210479736328,-0.07350540161132812,-0.13422679901123047,-1.108973503112793,104
2021-01-19 12:47:13.453,-0.061053276062011726,-2.632504463195801,11.034014701843262,-0.056460380554199226,-0.13955307006835938,-0.5805864334106445,104
2021-01-19 12:47:13.553,0.9541177749633788,-2.70193862915039,9.599843978881836,-0.010652542114257812,0.2024059295654297,-0.42398738861083984,104
2021-01-19 12:47:13.653,0.2394266128540039,-2.692361831665039,9.727937698364258,0.07670116424560547,0.1331615447998047,-0.09054946899414062,104
2021-01-19 12:47:13.753,-0.4489259719848633,-3.114951133728028,10.281015396118164,-0.4186611175537109,-0.16831684112548828,0.21092796325683594,104
2021-01-19 12:47:13.853,0.04788494110107422,-2.5929994583129883,9.839271545410156,-0.4847097396850586,-0.5081462860107422,0.2716503143310547,104
2021-01-19 12:47:13.953,-1.804085731506348,-5.115367889404297,4.503630638122559,-1.0461206436157229,-0.3057394027709961,0.2833681106567383,104
2021-01-19 12:47:14.053,-0.058659553527832024,-3.712322235107422,7.553936004638673,0.6381120681762695,-0.4271831512451172,0.7638177871704102,104
2021-01-19 12:47:14.153,2.1225242614746094,-5.195575714111328,6.80333137512207,0.5656719207763672,0.35367774963378906,1.134540557861328,104
2021-01-19 12:47:14.253,2.0255556106567383,-2.0698499679565434,10.21397590637207,2.157225608825684,0.6029577255249023,0.8351926803588867,104
2021-01-19 12:47:14.353,0.8918666839599609,2.094989776611328,9.966168403625488,1.5436143875122068,0.974745750427246,-0.1779041290283203,104
2021-01-19 12:47:14.453,0.3447751998901367,0.1604156494140625,9.051554679870604,1.0461206436157229,0.0628519058227539,0.5379743576049805,104
2021-01-19 12:47:14.553,-1.2498111724853516,1.0702400207519531,10.273832321166992,1.0461206436157229,0.0628519058227539,0.5379743576049805,104
2021-01-19 12:47:14.653,-1.2498111724853516,1.0702400207519531,10.273832321166992,1.0461206436157229,0.0628519058227539,0.5379743576049805,104
2021-01-19 12:47:14.753,-1.2498111724853516,1.0702400207519531,10.273832321166992,1.0461206436157229,0.0628519058227539,0.5379743576049805,104
2021-01-19 12:47:14.853,-1.2498111724853516,1.0702400207519531,10.273832321166992,1.0461206436157229,0.0628519058227539,0.5379743576049805,104
2021-01-19 12:47:14.953,-1.2498111724853516,1.0702400207519531,10.273832321166992,1.0461206436157229,0.0628519058227539,0.5379743576049805,104
2021-01-19 12:47:15.053,-1.2498111724853516,1.0702400207519531,10.273832321166992,0.5986967086791992,0.052199363708496094,0.33130645751953125,104
2021-01-19 12:47:15.153,-1.5598697662353516,1.9656991958618164,9.699206352233887,-0.24075698852539065,0.10013771057128906,-0.13955307006835938,104
2021-01-19 12:47:15.253,0.4716720581054688,-0.23224449157714844,9.993701934814453,-0.4442281723022461,-0.3291759490966797,-0.05113410949707031,104
2021-01-19 12:47:15.353,0.5698366165161133,-0.14365577697753906,9.804553985595703,-0.042611122131347656,-0.35367774963378906,0.13103103637695312,104
2021-01-19 12:47:15.453,0.4513206481933594,1.0714378356933594,10.032010078430176,-0.3590049743652344,-0.6306552886962891,-0.10226821899414062,104
2021-01-19 12:47:15.553,2.5175790786743164,0.05027961730957031,7.743083953857423,-0.8288002014160156,-0.2375602722167969,-0.2087974548339844,104
2021-01-19 12:47:15.653,1.8723220825195312,-1.731060028076172,10.423474311828613,-0.02450180053710937,-0.3238496780395508,-0.15340232849121094,104
2021-01-19 12:47:15.753,1.0714378356933594,1.6891603469848633,8.605022430419924,-0.4676647186279297,-0.16938209533691406,-0.12996578216552734,104
2021-01-19 12:47:15.853,1.977670669555664,-0.98284912109375,10.102642059326172,0.4090738296508789,0.4772529602050781,-0.4538164138793945,104
2021-01-19 12:47:15.953,1.7669744491577148,-0.09816455841064453,9.636955261230467,0.19814491271972656,0.6935081481933594,-0.7542295455932617,104
2021-01-19 12:47:16.053,0.8475723266601562,-1.1013660430908203,9.633363723754883,0.0010652542114257812,0.2492790222167969,-0.2578010559082031,104
2021-01-19 12:47:16.153,-0.2549896240234375,-0.7518014907836914,9.754274368286133,0.3121318817138672,-0.11824703216552734,0.13103103637695312,104
2021-01-19 12:47:16.253,0.13767051696777344,0.6392707824707031,9.833285331726074,-0.19281864166259768,-0.28656482696533203,0.3068046569824219,104
2021-01-19 12:47:16.353,1.5359268188476562,-0.4441375732421875,9.878776550292967,-0.11824703216552734,-0.13422679901123047,0.11398601531982422,104
2021-01-19 12:47:16.453,1.3455820083618164,0.037110328674316406,9.858426094055176,0.1384878158569336,0.05006885528564453,0.15872859954833984,104
2021-01-19 12:47:16.553,0.5351200103759766,0.5051918029785156,9.899127960205078,0.14061832427978516,0.08841896057128906,0.20027542114257807,104
2021-01-19 12:47:16.653,1.1061544418334959,-0.3878717422485352,9.82610321044922,0.006391525268554688,0.184295654296875,-0.07776641845703125,104
2021-01-19 12:47:16.753,1.632894515991211,-0.6596221923828125,9.845256805419922,0.3153276443481445,0.3281106948852539,-0.12996578216552734,104
2021-01-19 12:47:16.853,2.0279502868652344,-0.773350715637207,9.24429416656494,0.0980072021484375,0.3898983001708984,-0.6274595260620117,104
2021-01-19 12:47:16.953,-0.3699150085449219,0.7242679595947266,10.587482452392578,-0.3611354827880859,0.4325103759765625,-0.01597881317138672,104
2021-01-19 12:47:17.053,-0.4752626419067383,1.4198045730590818,10.156513214111328,-2.064544677734375,0.461273193359375,0.09481048583984376,104
2021-01-19 12:47:17.153,-0.5123739242553711,-1.9381647109985352,9.250279426574707,-1.4243011474609375,0.4602079391479492,0.11292076110839845,104
2021-01-19 12:47:17.253,-1.1875600814819336,-3.5758485794067383,9.391542434692383,-0.4740562438964844,0.17151260375976562,0.026632308959960938,104
2021-01-19 12:47:17.353,-1.36114501953125,-3.559088706970215,9.508861541748047,-0.1619243621826172,-0.03941535949707031,-0.15233707427978516,104
2021-01-19 12:47:17.453,-2.2757577896118164,-3.3627586364746094,9.343656539916992,-0.2301034927368164,-0.2897605895996094,-0.03728485107421875,104
2021-01-19 12:47:17.553,-2.5606765747070312,-4.173220634460448,8.772622108459473,-0.43570613861083984,-0.599761962890625,-0.06072139739990234,104
2021-01-19 12:47:17.653,-0.5004034042358398,-4.547924041748047,8.344046592712402,-0.26206302642822266,-0.3771142959594727,-0.3355684280395508,104
2021-01-19 12:47:17.753,0.4608974456787109,-3.808093070983887,8.335666656494139,-0.3760490417480469,-0.1384878158569336,-0.322784423828125,104
2021-01-19 12:47:17.853,1.0043973922729492,-4.245048522949219,8.202784538269043,-0.20560169219970706,0.5060157775878906,0.033023834228515625,104
2021-01-19 12:47:17.953,-0.20590686798095706,-4.460533142089844,9.45618724822998,0.8543672561645508,0.7723398208618164,0.2024059295654297,104
2021-01-19 12:47:18.053,-0.3208322525024414,-2.230266571044922,9.689629554748537,0.43570613861083984,0.9055023193359376,0.4112043380737305,104
2021-01-19 12:47:18.153,-1.9357709884643557,-4.830449104309082,9.865608215332033,-0.061786651611328125,-0.07137489318847656,0.4026813507080078,104
2021-01-19 12:47:18.253,-1.889081954956055,-4.407858848571777,8.010046005249022,-0.2833681106567383,-0.7212057113647461,0.2130584716796875,104
2021-01-19 12:47:18.353,-1.6376838684082031,-4.094209671020509,8.628965377807617,-0.3185234069824219,-0.3057394027709961,-0.0021305084228515625,104
2021-01-19 12:47:18.453,-1.5514898300170898,-3.249030113220215,9.323305130004883,-0.09907245635986328,0.12677001953125,-0.3771142959594727,104
2021-01-19 12:47:18.553,-0.13767051696777344,-3.538737297058105,8.948601722717285,0.04687213897705078,0.6018924713134766,-0.0692434310913086,104
2021-01-19 12:47:18.653,-1.0307350158691406,-3.5950031280517583,9.37597942352295,0.21732044219970706,0.33769893646240234,0.09587669372558594,104
2021-01-19 12:47:18.753,-1.8423938751220703,-4.151671409606934,9.039584159851074,-0.08415794372558594,-0.1896219253540039,-0.11505126953125,104
2021-01-19 12:47:18.853,-2.6049699783325195,-4.423421859741211,8.59544563293457,-0.0916147232055664,-0.43996715545654297,-0.22264671325683594,104
2021-01-19 12:47:18.953,-1.4796609878540041,-3.707533836364746,8.508054733276367,-0.1331615447998047,0.20560169219970706,-0.34835147857666016,104
2021-01-19 12:47:19.053,-1.3934669494628906,-3.6081714630126953,9.20598602294922,0.2130584716796875,0.3068046569824219,-0.09374523162841797,104
2021-01-19 12:47:19.153,-1.1336889266967771,-3.9469614028930655,9.32569980621338,0.09587669372558594,0.13635730743408206,0.14168357849121094,104
2021-01-19 12:47:19.253,-1.2905139923095703,-3.9349899291992183,9.056344032287598,0.007456779479980469,-0.13103103637695312,0.01810932159423828,104
2021-01-19 12:47:19.353,-1.4820556640625,-3.84520435333252,8.99528980255127,-0.04154586791992188,-0.1725778579711914,0.0170440673828125,104
2021-01-19 12:47:19.453,-1.916616439819336,-3.478880882263184,8.99528980255127,-0.17577362060546875,-0.09907245635986328,-0.04793834686279297,104
2021-01-19 12:47:19.553,-1.179180145263672,-3.921821594238281,8.632556915283201,0.0170440673828125,0.2823028564453125,-0.03621959686279297,104
2021-01-19 12:47:19.653,-1.142068862915039,-3.488457679748535,9.222745895385742,0.3217191696166992,0.6029577255249023,0.07244014739990234,104
2021-01-19 12:47:19.753,-2.158437728881836,-3.685985565185547,9.352036476135254,0.0021305084228515625,-0.019174575805664062,0.14807605743408206,104
2021-01-19 12:47:19.853,-1.9381647109985352,-4.055900573730469,8.879167556762695,-0.04367637634277344,-0.232234001159668,0.06817817687988281,104
2021-01-19 12:47:19.953,-1.9513330459594729,-3.434586524963379,9.058737754821776,-0.09694194793701172,-0.1736431121826172,-0.021305084228515625,104
2021-01-19 12:47:20.053,-1.6376838684082031,-3.276564598083496,9.069512367248537,-0.054329872131347656,0.006391525268554688,-0.014913558959960938,104
2021-01-19 12:47:20.153,-1.6041631698608398,-3.5890169143676762,9.047964096069336,0.04474163055419922,0.0916147232055664,0.005326271057128906,104
2021-01-19 12:47:20.253,-1.7119054794311523,-3.65366268157959,9.080286026000977,0.040480613708496094,0.054329872131347656,0.009587287902832031,104
2021-01-19 12:47:20.353,-1.8292255401611328,-3.750630378723145,9.071906089782717,0.023435592651367188,0.06817817687988281,0.005326271057128906,104
2021-01-19 12:47:20.453,-2.0159788131713867,-3.900273323059082,9.555549621582033,0.19814491271972656,-0.6263942718505859,0.22371196746826166,104
2021-01-19 12:47:20.553,-1.6388807296752932,-3.9972410202026367,9.462173461914062,0.19814491271972656,-0.6263942718505859,0.22371196746826166,104
2021-01-19 12:47:20.653,-1.6388807296752932,-3.9972410202026367,9.462173461914062,0.19814491271972656,-0.6263942718505859,0.22371196746826166,104
2021-01-19 12:47:20.753,-1.6388807296752932,-3.9972410202026367,9.462173461914062,0.19814491271972656,-0.6263942718505859,0.22371196746826166,104
2021-01-19 12:47:20.853,-1.6388807296752932,-3.9972410202026367,9.462173461914062,0.19814491271972656,-0.6263942718505859,0.22371196746826166,104
2021-01-19 12:47:20.953,-1.6388807296752932,-3.9972410202026367,9.462173461914062,0.19814491271972656,-0.6263942718505859,0.22371196746826166,104
2021-01-19 12:47:21.053,-2.340402603149414,-2.569056510925293,9.785400390625,0.7190752029418945,-0.8213434219360352,0.5752601623535156,104
2021-01-19 12:47:21.153,-1.4102277755737305,-1.7550029754638672,8.766635894775389,0.987529754638672,-0.5592803955078125,1.1888704299926758,104
2021-01-19 12:47:21.253,-0.4656858444213867,0.02513980865478516,8.420663833618164,-0.003195762634277344,-0.07883167266845703,1.6821031570434568,104
2021-01-19 12:47:21.353,-0.4094209671020508,-1.526350021362305,8.584671020507812,-0.965158462524414,0.334503173828125,1.9058160781860352,104
2021-01-19 12:47:21.453,-1.1468572616577148,-5.339232444763184,6.9194536209106445,-2.282931327819824,0.738250732421875,1.4019298553466797,104
2021-01-19 12:47:21.553,-2.444554328918457,-5.194378852844238,7.248665809631348,-1.4978065490722656,0.8884572982788086,1.205915451049805,104
2021-01-19 12:47:21.653,-3.6141567230224614,-5.081847190856934,6.258633613586426,-1.134540557861328,0.8884572982788086,1.3060531616210938,104
2021-01-19 12:47:21.753,-6.2334938049316415,-4.865165710449219,4.8986854553222665,0.35367774963378906,1.8365716934204104,1.8770523071289065,104
2021-01-19 12:47:21.853,-9.732726097106934,-4.830449104309082,6.574677467346191,0.690312385559082,1.913272857666016,1.9154033660888672,104
2021-01-19 12:47:21.953,-10.503683090209961,-2.9030580520629883,4.5694732666015625,0.7126827239990234,0.726531982421875,0.9587669372558594,104
2021-01-19 12:47:22.053,-10.279817581176758,-2.807286262512207,4.497644424438477,-0.647700309753418,0.2684545516967773,0.31319713592529297,104
2021-01-19 12:47:22.153,-8.761847496032715,-3.328041076660156,2.1871690750122066,-0.3387641906738281,0.5315828323364258,-0.19388389587402344,104
2021-01-19 12:47:22.253,-9.428653717041016,-2.1955490112304688,3.6285228729248047,0.012783050537109377,0.4271831512451172,-0.7137489318847656,104
2021-01-19 12:47:22.353,-10.114612579345703,-0.6919450759887695,4.574261665344238,0.243952751159668,-0.12037849426269533,-0.3515472412109375,104
2021-01-19 12:47:22.453,-9.451398849487305,-1.6915550231933594,3.84281063079834,0.061786651611328125,-0.2258424758911133,0.3973550796508789,104
2021-01-19 12:47:22.553,-9.657306671142578,-2.4505395889282227,3.0694599151611333,-0.7275972366333008,-0.2311687469482422,0.2876300811767578,104
2021-01-19 12:47:22.653,-9.88715648651123,-3.000025749206543,3.192765235900879,0.11931324005126953,-0.045806884765625,-0.02769756317138672,104
2021-01-19 12:47:22.753,-9.626180648803713,-2.377513885498047,3.41184139251709,0.0980072021484375,-0.1033334732055664,0.003195762634277344,104
2021-01-19 12:47:22.853,-9.125777244567873,-2.55349349975586,3.065868377685547,-0.10013771057128906,-0.06498241424560547,-0.07030868530273438,104
2021-01-19 12:47:22.953,-9.259857177734377,-2.541522026062012,3.1364994049072266,-0.056460380554199226,0.07563591003417969,-0.034089088439941406,104
2021-01-19 12:47:23.053,-9.47773551940918,-2.53194522857666,3.805699348449707,-0.0021305084228515625,0.1896219253540039,-0.010652542114257812,104
2021-01-19 12:47:23.153,-9.498086929321287,-2.594196319580078,4.019987106323241,0.030893325805664062,0.06817817687988281,0.056460380554199226,104
2021-01-19 12:47:23.253,-9.398724555969238,-3.0634737014770512,3.086219787597656,0.2524747848510742,0.05006885528564453,-0.12357425689697266,104
2021-01-19 12:47:23.353,-9.741106033325195,-2.46370792388916,3.7003507614135738,-0.06604766845703125,-0.35474300384521484,-0.3068046569824219,104
2021-01-19 12:47:23.453,-9.469355583190918,-3.2693815231323238,4.358777046203613,-0.716944694519043,-0.6082839965820312,-0.5923042297363281,104
2021-01-19 12:47:23.553,-9.128171920776367,-4.4689130783081055,4.0954065322875985,-1.7002134323120115,-0.9033708572387696,-0.7552947998046875,104
2021-01-19 12:47:23.653,-7.755055427551269,-5.383525848388672,3.914638519287109,-1.3966035842895508,-0.774470329284668,-0.8948488235473633,104
2021-01-19 12:47:23.753,-7.121769905090332,-5.8587894439697275,3.015588760375977,-1.634164810180664,-0.6338510513305664,-0.8074941635131836,104
2021-01-19 12:47:23.853,-6.4884843826293945,-7.9058942794799805,2.7378530502319336,-1.0887327194213867,-0.5038852691650391,-0.8682165145874023,104
2021-01-19 12:47:23.953,-5.63253116607666,-8.536786079406737,2.494833946228028,-0.5912389755249023,-0.5507583618164062,-1.0929937362670898,104
2021-01-19 12:47:24.053,-4.565881729125977,-9.511256217956543,1.4245929718017578,0.2897605895996094,-0.196014404296875,-1.3497304916381836,104
2021-01-19 12:47:24.153,-4.522784233093262,-8.402706146240233,1.5167722702026367,0.3185234069824219,-0.2066669464111328,-1.3902120590209959,104
2021-01-19 12:47:24.253,-2.030344009399414,-9.73512077331543,1.8304224014282229,2.1199407577514653,0.12570476531982422,-1.5436143875122068,104
2021-01-19 12:47:24.353,-0.4261808395385742,-9.445413589477539,3.596199989318848,2.9998760223388667,0.370722770690918,-1.7396297454833984,104
2021-01-19 12:47:24.453,1.0379171371459959,-6.616578102111816,5.108184814453125,1.518047332763672,0.6402425765991211,-1.6544055938720703,104
2021-01-19 12:47:24.553,0.5997657775878906,-5.158464431762695,6.220325469970702,0.6295900344848633,0.6594181060791016,-1.5468111038208008,104
2021-01-19 12:47:24.653,-0.3244237899780273,-4.248640060424806,8.867196083068848,-0.4229221343994141,0.4303798675537109,-0.5901737213134766,104
2021-01-19 12:47:24.753,1.1145343780517578,-4.696369171142578,8.962966918945312,-2.102895736694336,-0.07030868530273438,-0.15872859954833984,104
2021-01-19 12:47:24.853,0.6452569961547852,-6.457358360290527,5.188392639160156,-5.7483415603637695,-0.5358438491821289,0.20027542114257807,104
2021-01-19 12:47:24.953,-0.8284187316894531,-8.931840896606445,0.421391487121582,-0.6626138687133789,0.1896219253540039,0.07670116424560547,104
2021-01-19 12:47:25.053,1.2510080337524414,-9.156903266906738,0.4537143707275391,-0.6423740386962891,-0.19388389587402344,0.5496931076049805,104
2021-01-19 12:47:25.153,-0.3387889862060547,-9.827300071716307,2.320052146911621,-0.2301034927368164,0.2141246795654297,0.9385261535644532,104
2021-01-19 12:47:25.253,-0.4908256530761719,-11.45540714263916,0.8128557205200195,0.5166683197021484,0.22371196746826166,0.8383884429931641,104
2021-01-19 12:47:25.353,-1.1193227767944336,-10.277423858642578,1.0355234146118164,0.18855667114257807,0.34835147857666016,-0.2599315643310547,104
2021-01-19 12:47:25.453,-1.0522832870483398,-9.49569320678711,1.6652173995971682,0.13955307006835938,0.011717796325683594,-0.4026813507080078,104
2021-01-19 12:47:25.553,-0.15323352813720706,-8.466155052185059,1.4401559829711914,-0.3515472412109375,-0.0170440673828125,0.2812376022338867,104
2021-01-19 12:47:25.653,-0.5925827026367188,-10.812543869018556,0.5135717391967773,-0.15872859954833984,0.38031005859375,-0.2130584716796875,104
2021-01-19 12:47:25.753,-0.8008842468261719,-9.178451538085938,1.626909255981445,0.13529205322265625,0.1214437484741211,-0.3898983001708984,104
2021-01-19 12:47:25.853,-0.14365577697753906,-8.85642147064209,1.3731164932250977,0.03621959686279297,0.10120296478271484,-0.10013771057128906,104
2021-01-19 12:47:25.953,0.08739089965820312,-9.149720191955566,1.8160572052001955,0.013848304748535156,0.02450180053710937,0.1097249984741211,104
2021-01-19 12:47:26.053,-0.0945730209350586,-9.438230514526367,1.5550813674926758,0.0170440673828125,0.02769756317138672,0.033023834228515625,104
2021-01-19 12:47:26.153,-0.1975269317626953,-9.410696029663086,1.3431873321533203,0.014913558959960938,0.023435592651367188,-0.01597881317138672,104
2021-01-19 12:47:26.253,-0.3124523162841797,-9.340065002441406,1.4317760467529297,-0.011717796325683594,-0.010652542114257812,-0.009587287902832031,104
2021-01-19 12:47:26.353,-0.2873125076293945,-9.296968460083008,1.5814180374145508,-0.03941535949707031,-0.003195762634277344,0.031958580017089844,104
2021-01-19 12:47:26.453,-0.4154062271118164,-9.19281768798828,1.3743133544921875,-0.00852203369140625,0.006391525268554688,-0.02769756317138672,104
2021-01-19 12:47:26.553,-0.20710468292236328,-9.483721733093262,1.5335321426391602,-0.00852203369140625,0.006391525268554688,-0.02769756317138672,104
2021-01-19 12:47:26.653,-0.20710468292236328,-9.483721733093262,1.5335321426391602,-0.00852203369140625,0.006391525268554688,-0.02769756317138672,104
2021-01-19 12:47:26.753,-0.20710468292236328,-9.483721733093262,1.5335321426391602,-0.00852203369140625,0.006391525268554688,-0.02769756317138672,104
2021-01-19 12:47:26.853,-0.20710468292236328,-9.483721733093262,1.5335321426391602,-0.00852203369140625,0.006391525268554688,-0.02769756317138672,104
2021-01-19 12:47:26.953,-0.20710468292236328,-9.483721733093262,1.5335321426391602,-0.00852203369140625,0.006391525268554688,-0.02769756317138672,104
2021-01-19 12:47:27.053,-0.32681846618652344,-9.210774421691896,1.5610666275024414,-0.02237033843994141,-0.01597881317138672,-0.003195762634277344,104
2021-01-19 12:47:27.153,-0.08739089965820312,-9.330488204956056,1.5167722702026367,-0.010652542114257812,-0.006391525268554688,0.004261016845703125,104
2021-01-19 12:47:27.253,-0.2106952667236328,-9.341261863708496,1.4198045730590818,0.00852203369140625,-0.0021305084228515625,0.005326271057128906,104
2021-01-19 12:47:27.353,-0.2513980865478516,-9.377176284790039,1.5012102127075195,0.011717796325683594,0.011717796325683594,0.0010652542114257812,104
2021-01-19 12:47:27.453,-0.2897071838378906,-9.33407974243164,1.4760694503784182,0.030893325805664062,0.01810932159423828,-0.012783050537109377,104
2021-01-19 12:47:27.553,-0.2047100067138672,-9.311333656311037,1.5778264999389648,0.026632308959960938,0.010652542114257812,-0.003195762634277344,104
2021-01-19 12:47:27.653,-0.2657642364501953,-9.202394485473633,2.244631767272949,-0.06498241424560547,-0.2141246795654297,-0.01810932159423828,104
2021-01-19 12:47:27.753,-0.3938579559326172,-9.610618591308594,1.868730545043945,0.497492790222168,-0.4516849517822266,-0.1097249984741211,104
2021-01-19 12:47:27.853,-0.10415077209472656,-8.61579704284668,0.7577877044677734,0.5539541244506836,-0.334503173828125,0.2844333648681641,104
2021-01-19 12:47:27.953,-0.9086265563964844,-10.282212257385254,1.8507738113403318,3.1618003845214844,0.15872859954833984,0.03728485107421875,104
2021-01-19 12:47:28.053,-0.6272993087768555,-7.180429458618164,5.669642448425293,2.2381887435913086,0.4218568801879883,-0.382441520690918,104
2021-01-19 12:47:28.153,-0.13767051696777344,-5.820481300354004,6.8799476623535165,-0.19814491271972656,0.4889707565307617,-0.2961521148681641,104
2021-01-19 12:47:28.253,0.0,-6.611788749694824,7.1612749099731445,0.2492790222167969,0.3217191696166992,-0.0916147232055664,104
2021-01-19 12:47:28.353,-0.3411836624145508,-6.6070003509521475,7.173246383666992,0.34302520751953125,0.04793834686279297,0.07244014739990234,104
2021-01-19 12:47:28.453,-0.5291337966918945,-6.334053039550781,7.322888374328612,0.06817817687988281,-0.03515434265136719,-0.04367637634277344,104
2021-01-19 12:47:28.553,-0.74102783203125,-6.059908866882324,7.211554527282715,-0.02982807159423828,0.04900360107421875,-0.006391525268554688,104
2021-01-19 12:47:28.653,-1.045100212097168,-6.122159957885742,7.6616783142089835,-0.0021305084228515625,0.08309268951416016,0.07883167266845703,104
2021-01-19 12:47:28.753,-0.7529993057250977,-6.429823875427246,7.381548881530763,0.03941535949707031,0.0628519058227539,-0.0010652542114257812,104
2021-01-19 12:47:28.853,-0.614130973815918,-6.295744895935059,7.368379592895508,0.0010652542114257812,-0.013848304748535156,-0.003195762634277344,104
2021-01-19 12:47:28.953,-0.8798952102661133,-6.276590347290039,7.294157028198242,-0.012783050537109377,-0.03621959686279297,-0.0010652542114257812,104
2021-01-19 12:47:29.053,-0.7613792419433594,-6.173636436462402,7.359999656677246,0.019174575805664062,-0.021305084228515625,0.031958580017089844,104
2021-01-19 12:47:29.153,-0.8990497589111328,-6.124554634094237,7.577878952026367,0.04900360107421875,-0.05965614318847656,0.08735370635986328,104
2021-01-19 12:47:29.253,-0.6859588623046875,-6.037162780761719,7.47612190246582,0.054329872131347656,-0.030893325805664062,0.12250900268554688,104
2021-01-19 12:47:29.353,-0.7685613632202148,-6.0443458557128915,7.273805618286133,0.052199363708496094,0.058590888977050774,0.18642616271972656,104
2021-01-19 12:47:29.453,-0.7254648208618164,-6.2406768798828125,7.459362030029298,0.11398601531982422,0.030893325805664062,0.06604766845703125,104
2021-01-19 12:47:29.553,-1.0618600845336914,-5.941391944885254,7.737098693847656,-0.011717796325683594,-0.042611122131347656,-0.033023834228515625,104
2021-01-19 12:47:29.653,-1.3156538009643557,-6.0778656005859375,7.710761070251465,0.02982807159423828,-0.006391525268554688,-0.056460380554199226,104
2021-01-19 12:47:29.753,-1.0869998931884766,-5.940195083618164,7.759843826293945,-0.04474163055419922,-0.023435592651367188,-0.0916147232055664,104
2021-01-19 12:47:29.853,-0.9349641799926758,-6.010826110839844,7.6317501068115225,-0.0809621810913086,-0.010652542114257812,-0.12570476531982422,104
2021-01-19 12:47:29.953,-0.7853212356567383,-6.221522331237793,7.56351375579834,-0.1832304000854492,-0.04687213897705078,-0.1448802947998047,104
2021-01-19 12:47:30.053,-0.8320102691650391,-6.000051498413086,7.30373477935791,-0.370722770690918,0.11931324005126953,-0.21518993377685547,104
2021-01-19 12:47:30.153,-0.20590686798095706,-5.7378787994384775,7.333662986755371,-0.07670116424560547,0.4783182144165039,-0.07030868530273438,104
2021-01-19 12:47:30.253,-1.0175666809082031,-6.222719192504883,7.704775810241699,0.7009649276733398,-0.034089088439941406,0.3898983001708984,104
2021-01-19 12:47:30.353,-1.6496543884277344,-7.361197471618652,7.619778633117676,0.7190752029418945,-0.4634037017822266,0.334503173828125,104
2021-01-19 12:47:30.453,-0.9397525787353516,-5.7378787994384775,7.156486511230469,-0.2684545516967773,-0.12996578216552734,-0.12357425689697266,104
2021-01-19 12:47:30.553,-0.5183601379394531,-5.389512062072754,7.421053886413574,-0.03835010528564453,0.18642616271972656,-0.04474163055419922,104
2021-01-19 12:47:30.653,-0.7577877044677734,-4.6281328201293945,8.075887680053711,-0.021305084228515625,0.3728532791137695,0.1043987274169922,104
2021-01-19 12:47:30.753,-1.2438249588012695,-5.87435245513916,8.130956649780272,0.3078699111938477,0.2833681106567383,0.057525634765625,104
2021-01-19 12:47:30.853,-1.6508522033691406,-5.718724250793457,8.412283897399902,0.05113410949707031,0.15659809112548828,-0.11931324005126953,104
2021-01-19 12:47:30.953,-1.5131807327270508,-5.0195960998535165,8.23630428314209,-0.00852203369140625,0.10226821899414062,-0.08841896057128906,104
2021-01-19 12:47:31.053,-1.610149383544922,-5.272192001342773,8.087859153747559,0.10759449005126953,0.04900360107421875,-0.02769756317138672,104
2021-01-19 12:47:31.153,-1.6580343246459959,-5.296134948730469,8.024411201477049,0.004261016845703125,0.04687213897705078,-0.061786651611328125,104
2021-01-19 12:47:31.253,-1.5897979736328125,-5.18480110168457,8.074690818786621,-0.005326271057128906,0.07776641845703125,-0.033023834228515625,104
2021-01-19 12:47:31.353,-1.6400775909423828,-5.335640907287598,8.175250053405763,0.03835010528564453,0.052199363708496094,0.0010652542114257812,104
2021-01-19 12:47:31.453,-1.5107870101928709,-5.1548728942871085,8.140533447265625,0.014913558959960938,0.031958580017089844,-0.03515434265136719,104
2021-01-19 12:47:31.553,-1.7873258590698242,-5.13212776184082,8.205179214477539,0.021305084228515625,0.0021305084228515625,-0.030893325805664062,104
2021-01-19 12:47:31.653,-1.8028879165649412,-5.0614967346191415,8.11539363861084,0.013848304748535156,0.02769756317138672,-0.01597881317138672,104
2021-01-19 12:47:31.753,-1.865139961242676,-5.0195960998535165,8.190813064575195,0.019174575805664062,0.08948421478271484,-0.012783050537109377,104
2021-01-19 12:47:31.853,-1.7083148956298828,-5.099804878234863,8.21595287322998,0.05326461791992188,0.09907245635986328,0.042611122131347656,104
2021-01-19 12:47:31.953,-1.7250747680664062,-5.042342185974121,8.245882034301758,0.0287628173828125,0.11079025268554688,0.02556705474853516,104
2021-01-19 12:47:32.053,-1.723876953125,-5.005230903625488,8.18602466583252,0.04474163055419922,0.08202743530273438,0.0692434310913086,104
2021-01-19 12:47:32.153,-1.9992189407348635,-5.055510520935059,8.257852554321289,0.023435592651367188,0.05006885528564453,0.021305084228515625,104
2021-01-19 12:47:32.253,-2.278151512145996,-4.814886093139648,8.347638130187987,-0.02556705474853516,0.057525634765625,0.011717796325683594,104
2021-01-19 12:47:32.353,-2.2374496459960938,-4.977696418762207,8.248275756835938,-0.009587287902832031,-0.012783050537109377,0.02556705474853516,104
2021-01-19 12:47:32.453,-2.174000740051269,-5.01600456237793,8.271021842956543,-0.003195762634277344,-0.013848304748535156,0.003195762634277344,104
2021-01-19 12:47:32.553,-2.184775352478028,-5.011216163635254,8.28538703918457,-0.003195762634277344,-0.013848304748535156,0.003195762634277344,104
2021-01-19 12:47:32.653,-2.184775352478028,-5.011216163635254,8.28538703918457,-0.003195762634277344,-0.013848304748535156,0.003195762634277344,104
2021-01-19 12:47:32.753,-2.184775352478028,-5.011216163635254,8.28538703918457,-0.003195762634277344,-0.013848304748535156,0.003195762634277344,104
2021-01-19 12:47:32.853,-2.184775352478028,-5.011216163635254,8.28538703918457,-0.003195762634277344,-0.013848304748535156,0.003195762634277344,104
2021-01-19 12:47:32.953,-2.184775352478028,-5.011216163635254,8.28538703918457,-0.003195762634277344,-0.013848304748535156,0.003195762634277344,104
2021-01-19 12:47:33.053,-2.2075204849243164,-4.981287956237793,8.282993316650389,-0.010652542114257812,-0.0010652542114257812,-0.006391525268554688,104
2021-01-19 12:47:33.153,-2.124917984008789,-4.94537353515625,8.227924346923826,-0.007456779479980469,0.011717796325683594,-0.004261016845703125,104
2021-01-19 12:47:33.253,-2.196746826171875,-4.9908647537231445,8.262641906738281,-0.01810932159423828,0.003195762634277344,-0.011717796325683594,104
2021-01-19 12:47:33.353,-2.1500577926635738,-4.9381914138793945,8.274613380432129,0.0010652542114257812,-0.00852203369140625,-0.0021305084228515625,104
2021-01-19 12:47:33.453,-2.1751985549926762,-4.82326602935791,8.251867294311522,-0.011717796325683594,0.009587287902832031,0.012783050537109377,104
2021-01-19 12:47:33.553,-2.1416778564453125,-4.9130516052246085,8.197996139526367,-0.0021305084228515625,0.0,0.006391525268554688,104
2021-01-19 12:47:33.653,-2.1775922775268555,-4.956148147583008,8.229122161865233,-0.01597881317138672,0.010652542114257812,-0.010652542114257812,104
2021-01-19 12:47:33.753,-2.158437728881836,-4.920233726501465,8.247078895568848,-0.005326271057128906,0.007456779479980469,-0.0021305084228515625,104
2021-01-19 12:47:33.853,-2.218295097351074,-4.96333122253418,8.268627166748049,-0.013848304748535156,-0.005326271057128906,0.0,104
2021-01-19 12:47:33.953,-2.1129465103149414,-4.94417667388916,8.194404602050781,-0.005326271057128906,0.012783050537109377,0.004261016845703125,104
2021-01-19 12:47:34.053,-2.22428035736084,-4.933403015136719,8.273415565490723,-0.012783050537109377,0.006391525268554688,-0.0010652542114257812,104
2021-01-19 12:47:34.153,-2.1452693939208984,-4.926219940185547,8.238698959350586,-0.00852203369140625,0.005326271057128906,-0.004261016845703125,104
2021-01-19 12:47:34.253,-2.226675033569336,-4.954951286315918,8.247078895568848,-0.012783050537109377,-0.011717796325683594,-0.005326271057128906,104
2021-01-19 12:47:34.353,-2.1177358627319336,-4.8711509704589835,8.220741271972656,-0.0010652542114257812,0.006391525268554688,0.007456779479980469,104
2021-01-19 12:47:34.453,-2.1991405487060547,-4.933403015136719,8.282993316650389,-0.010652542114257812,0.0021305084228515625,-0.006391525268554688,104
2021-01-19 12:47:34.553,-2.1512556076049805,-4.919036865234375,8.229122161865233,-0.004261016845703125,0.007456779479980469,0.003195762634277344,104
2021-01-19 12:47:34.653,-2.1572408676147456,-4.884320259094238,8.30454158782959,-0.006391525268554688,0.0010652542114257812,-0.0010652542114257812,104
2021-01-19 12:47:34.753,-2.1991405487060547,-4.885517120361328,8.250670433044434,-0.005326271057128906,0.006391525268554688,0.007456779479980469,104
2021-01-19 12:47:34.853,-2.218295097351074,-4.946571350097656,8.271021842956543,-0.006391525268554688,-0.003195762634277344,0.004261016845703125,104
2021-01-19 12:47:34.953,-2.193155288696289,-4.908262252807617,8.224332809448242,-0.005326271057128906,-0.009587287902832031,0.009587287902832031,104
2021-01-19 12:47:35.053,-2.1680154800415044,-4.87474250793457,8.279401779174805,-0.020239830017089844,-0.00852203369140625,0.0,104
2021-01-19 12:47:35.153,-2.238646507263184,-4.910656929016113,8.266232490539549,-0.014913558959960938,-0.011717796325683594,0.020239830017089844,104
2021-01-19 12:47:35.253,-2.0782299041748047,-4.948965072631836,8.201587677001951,-0.005326271057128906,-0.003195762634277344,0.0021305084228515625,104
2021-01-19 12:47:35.353,-2.184775352478028,-4.934599876403809,8.266232490539549,-0.00852203369140625,0.005326271057128906,0.010652542114257812,104
2021-01-19 12:47:35.453,-2.158437728881836,-4.9250221252441415,8.225530624389647,-0.004261016845703125,0.013848304748535156,0.010652542114257812,104
2021-01-19 12:47:35.553,-2.1428756713867188,-4.926219940185547,8.290175437927246,-0.0010652542114257812,-0.0010652542114257812,0.003195762634277344,104
2021-01-19 12:47:35.653,-2.183578491210937,-4.953753471374512,8.290175437927246,-0.003195762634277344,-0.0021305084228515625,0.003195762634277344,104
2021-01-19 12:47:35.753,-2.174000740051269,-4.935796737670898,8.199193000793457,-0.0010652542114257812,0.02450180053710937,0.0010652542114257812,104
2021-01-19 12:47:35.853,-2.1428756713867188,-4.921431541442871,8.242290496826174,0.00852203369140625,0.054329872131347656,0.0021305084228515625,104
2021-01-19 12:47:35.953,-2.2506179809570312,-5.026779174804688,8.292570114135742,-0.01597881317138672,0.011717796325683594,-0.05965614318847656,104
2021-01-19 12:47:36.053,-2.179986953735352,-4.807703018188477,8.281795501708983,0.0010652542114257812,-0.0010652542114257812,-0.005326271057128906,104
2021-01-19 12:47:36.153,-2.258997917175293,-4.899882316589356,8.245882034301758,-0.011717796325683594,-0.010652542114257812,-0.007456779479980469,104
2021-01-19 12:47:36.253,-2.215900421142578,-4.931008338928223,8.192010879516603,0.004261016845703125,0.030893325805664062,-0.006391525268554688,104
2021-01-19 12:47:36.353,-2.0279502868652344,-4.953753471374512,8.111802101135254,0.01810932159423828,0.11079025268554688,-0.031958580017089844,104
2021-01-19 12:47:36.453,-2.3308258056640625,-4.922628402709961,8.376369476318361,0.0287628173828125,0.05006885528564453,-0.0628519058227539,104
2021-01-19 12:47:36.553,-2.2578001022338867,-4.805309295654297,8.298555374145508,0.04474163055419922,0.0,-0.02450180053710937,104
2021-01-19 12:47:36.653,-2.226675033569336,-4.799323081970215,8.277007102966309,0.021305084228515625,-0.014913558959960938,-0.056460380554199226,104
2021-01-19 12:47:36.753,-2.1979436874389653,-4.70355224609375,8.302146911621094,0.0010652542114257812,-0.01810932159423828,-0.03728485107421875,104
2021-01-19 12:47:36.853,-2.382303237915039,-4.667637825012207,8.431437492370605,-0.020239830017089844,-0.08735370635986328,0.014913558959960938,104
2021-01-19 12:47:36.953,-2.1955490112304688,-4.776577949523926,8.296161651611326,-0.020239830017089844,-0.040480613708496094,0.02450180053710937,104
2021-01-19 12:47:37.053,-2.1979436874389653,-4.826857566833496,8.226727485656737,-0.030893325805664062,-0.02237033843994141,0.033023834228515625,104
2021-01-19 12:47:37.153,-2.0195703506469727,-4.8735456466674805,8.362004280090332,-0.0287628173828125,-0.01597881317138672,0.04687213897705078,104
2021-01-19 12:47:37.253,-1.9908390045166016,-4.916642189025879,8.316513061523438,-0.01597881317138672,-0.026632308959960938,0.020239830017089844,104
2021-01-19 12:47:37.353,-1.9908390045166016,-4.8735456466674805,8.315315246582031,-0.0021305084228515625,-0.02237033843994141,0.0021305084228515625,104
2021-01-19 12:47:37.453,-2.1380872726440434,-4.916642189025879,8.280598640441895,-0.0010652542114257812,0.0287628173828125,-0.009587287902832031,104
2021-01-19 12:47:37.553,-2.033935546875,-4.764606475830078,8.225530624389647,0.033023834228515625,0.042611122131347656,0.0010652542114257812,104
2021-01-19 12:47:37.653,-1.7334547042846682,-4.757423400878906,8.293766975402832,0.033023834228515625,0.11931324005126953,-0.00852203369140625,104
2021-01-19 12:47:37.753,-2.434976577758789,-4.636512756347656,8.790578842163086,-0.04900360107421875,-0.20453643798828125,-0.020239830017089844,104
2021-01-19 12:47:37.853,-2.379908561706543,-4.989667892456055,8.310526847839355,-0.06711292266845703,-0.0916147232055664,-0.1043987274169922,104
2021-01-19 12:47:37.953,-2.0219640731811523,-4.601795196533203,7.862797737121582,0.034089088439941406,0.08948421478271484,0.052199363708496094,104
2021-01-19 12:47:38.053,-1.8376054763793943,-4.879530906677246,8.643331527709961,-0.03941535949707031,-0.04474163055419922,-0.026632308959960938,104
2021-01-19 12:47:38.153,-1.8471822738647459,-4.9130516052246085,8.277007102966309,-0.0021305084228515625,-0.005326271057128906,-0.034089088439941406,104
2021-01-19 12:47:38.253,-1.9692907333374023,-4.762211799621582,8.359609603881836,-0.010652542114257812,0.0170440673828125,0.00852203369140625,104
2021-01-19 12:47:38.353,-2.0758352279663086,-4.82206916809082,8.433832168579103,0.007456779479980469,-0.0010652542114257812,0.012783050537109377,104
2021-01-19 12:47:38.453,-1.9597129821777344,-4.8376312255859375,8.394326210021973,0.0,-0.03515434265136719,0.013848304748535156,104
2021-01-19 12:47:38.553,-1.9633045196533203,-4.793337821960449,8.364398002624513,0.0,-0.03515434265136719,0.013848304748535156,104
2021-01-19 12:47:38.653,-1.9633045196533203,-4.793337821960449,8.364398002624513,0.0,-0.03515434265136719,0.013848304748535156,104
2021-01-19 12:47:38.753,-1.9633045196533203,-4.793337821960449,8.364398002624513,0.0,-0.03515434265136719,0.013848304748535156,104
2021-01-19 12:47:38.853,-1.9633045196533203,-4.793337821960449,8.364398002624513,0.0,-0.03515434265136719,0.013848304748535156,104
2021-01-19 12:47:38.953,-1.9633045196533203,-4.793337821960449,8.364398002624513,0.005326271057128906,0.007456779479980469,0.00852203369140625,104
2021-01-19 12:47:39.053,-1.8615484237670896,-4.82326602935791,8.332075119018555,-0.011717796325683594,0.003195762634277344,-0.007456779479980469,104
2021-01-19 12:47:39.153,-1.939361572265625,-4.82565975189209,8.443408966064451,-0.034089088439941406,-0.07776641845703125,0.0010652542114257812,104
2021-01-19 12:47:39.253,-2.115341186523437,-4.77418327331543,8.534391403198242,-0.009587287902832031,-0.0745706558227539,0.023435592651367188,104
2021-01-19 12:47:39.353,-1.9381647109985352,-4.776577949523926,8.122576713562013,0.026632308959960938,0.06711292266845703,-0.0021305084228515625,104
2021-01-19 12:47:39.453,-1.4221982955932615,-4.8184776306152335,8.126168251037598,-0.02982807159423828,0.1608591079711914,-0.02450180053710937,104
2021-01-19 12:47:39.553,-1.8064794540405276,-4.854391098022461,8.639739990234375,-0.023435592651367188,-0.02237033843994141,-0.006391525268554688,104
2021-01-19 12:47:39.653,-1.8771104812622068,-4.792140007019043,8.419466972351074,0.01810932159423828,0.07776641845703125,-0.012783050537109377,104
2021-01-19 12:47:39.753,-2.000415802001953,-4.805309295654297,8.189616203308105,-0.006391525268554688,0.06604766845703125,-0.03835010528564453,104
2021-01-19 12:47:39.853,-2.2649831771850586,-4.826857566833496,8.498477935791017,-0.026632308959960938,-0.011717796325683594,-0.003195762634277344,104
2021-01-19 12:47:39.953,-2.109355926513672,-4.811294555664063,8.322498321533201,-0.023435592651367188,0.0010652542114257812,0.0010652542114257812,104
2021-01-19 12:47:40.053,-2.0207672119140625,-4.794534683227539,8.450592041015625,-0.030893325805664062,-0.03835010528564453,0.033023834228515625,104
2021-01-19 12:47:40.153,-1.9752759933471682,-4.770591735839844,8.378764152526855,-0.02237033843994141,-0.01597881317138672,0.04793834686279297,104
2021-01-19 12:47:40.253,-1.9321794509887693,-4.841222763061523,8.296161651611326,-0.005326271057128906,0.011717796325683594,0.03621959686279297,104
2021-01-19 12:47:40.353,-1.9465446472167969,-4.899882316589356,8.300950050354004,-0.013848304748535156,0.019174575805664062,-0.0010652542114257812,104
2021-01-19 12:47:40.453,-2.0518932342529297,-4.891502380371094,8.383552551269531,-0.02556705474853516,0.02450180053710937,0.005326271057128906,104
2021-01-19 12:47:40.553,-1.9944305419921875,-4.796929359436035,8.28538703918457,0.003195762634277344,0.05006885528564453,-0.0010652542114257812,104
2021-01-19 12:47:40.653,-1.9884443283081052,-4.887911796569824,8.338061332702638,-0.010652542114257812,0.019174575805664062,-0.033023834228515625,104
2021-01-19 12:47:40.753,-2.2087182998657227,-4.854391098022461,8.279401779174805,-0.012783050537109377,0.04687213897705078,-0.006391525268554688,104
2021-01-19 12:47:40.853,-2.1392841339111333,-4.789746284484863,8.297358512878418,-0.004261016845703125,0.011717796325683594,-0.0021305084228515625,104
2021-01-19 12:47:40.953,-2.1644239425659184,-4.911853790283203,8.242290496826174,-0.013848304748535156,0.02769756317138672,0.0,104
2021-01-19 12:47:41.053,-2.2147035598754883,-4.826857566833496,8.344046592712402,-0.00852203369140625,0.01810932159423828,0.010652542114257812,104
2021-01-19 12:47:41.153,-2.1656208038330083,-4.834039688110352,8.266232490539549,0.004261016845703125,0.0170440673828125,0.040480613708496094,104
2021-01-19 12:47:41.253,-2.32364273071289,-4.909460067749023,8.418269157409668,-0.03621959686279297,-0.07563591003417969,-0.031958580017089844,104
2021-01-19 12:47:41.353,-2.1668176651000977,-4.817279815673828,8.218347549438478,-0.006391525268554688,0.009587287902832031,0.011717796325683594,104
2021-01-19 12:47:41.453,-2.128509521484375,-4.747846603393555,8.273415565490723,-0.010652542114257812,-0.0010652542114257812,0.007456779479980469,104
2021-01-19 12:47:41.553,-2.08182144165039,-4.909460067749023,8.316513061523438,-0.00852203369140625,0.00852203369140625,0.01810932159423828,104
2021-01-19 12:47:41.653,-2.1069612503051762,-4.789746284484863,8.327286720275879,0.2013406753540039,0.03621959686279297,0.023435592651367188,104
2021-01-19 12:47:41.753,-2.9653091430664062,-4.883122444152832,9.531606674194336,0.4953622817993164,-0.2876300811767578,-0.2695198059082031,104
2021-01-19 12:47:41.853,-2.4696941375732417,-3.9625244140625,10.32650661468506,0.1384878158569336,-0.4953622817993164,-0.4857749938964844,104
2021-01-19 12:47:41.953,-0.5770196914672852,-5.232686996459961,8.636148452758789,0.9896602630615234,-0.5539541244506836,-0.774470329284668,104
2021-01-19 12:47:42.053,0.08978462219238281,-3.465712547302246,8.679244995117188,0.6455698013305664,-0.6604833602905273,-0.8128213882446289,104
2021-01-19 12:47:42.153,1.1887569427490234,-3.0503053665161133,8.391932487487793,0.1097249984741211,-0.6924428939819336,-0.6615486145019531,104
2021-01-19 12:47:42.253,1.3755102157592771,-2.9533376693725586,8.175250053405763,-0.3419599533081055,-0.5369091033935547,-0.5070810317993164,104
2021-01-19 12:47:42.353,1.7645797729492188,-2.1656208038330083,8.557137489318848,-0.052199363708496094,-0.09054946899414062,-0.6040229797363281,104
2021-01-19 12:47:42.453,2.3643455505371094,-2.4230051040649414,9.981730461120604,0.7180099487304688,0.12037849426269533,-0.5976314544677734,104
2021-01-19 12:47:42.553,1.8028879165649412,-1.6616258621215818,7.947793960571289,-0.1043987274169922,0.3451557159423828,-0.2332992553710937,104
2021-01-19 12:47:42.653,0.6751852035522461,-2.045907020568848,8.250670433044434,0.3270454406738281,0.1043987274169922,0.19175338745117188,104
2021-01-19 12:47:42.753,0.7948989868164062,-1.2737541198730469,11.390761375427244,-0.3685922622680664,-0.03941535949707031,-0.007456779479980469,104
2021-01-19 12:47:42.853,1.6903572082519531,-1.8974618911743164,9.80575180053711,-0.2663240432739258,0.0745706558227539,0.02556705474853516,104
2021-01-19 12:47:42.953,1.1935453414916992,-1.543109893798828,9.78659725189209,-0.1033334732055664,-0.05326461791992188,-0.07563591003417969,104
2021-01-19 12:47:43.053,2.316460609436035,-2.0650615692138667,9.304150581359863,-0.005326271057128906,0.031958580017089844,-0.057525634765625,104
2021-01-19 12:47:43.153,2.31167221069336,-1.9357709884643557,9.0754976272583,-0.09374523162841797,0.0170440673828125,0.00852203369140625,104
2021-01-19 12:47:43.253,1.886688232421875,-2.0435132980346684,9.202394485473633,-0.16831684112548828,0.0287628173828125,-0.031958580017089844,104
2021-01-19 12:47:43.353,1.8615484237670896,-2.109355926513672,9.33407974243164,-0.0692434310913086,0.02450180053710937,-0.004261016845703125,104
2021-01-19 12:47:43.453,1.7717628479003906,-2.41342830657959,9.239505767822266,-0.040480613708496094,0.010652542114257812,0.01597881317138672,104
2021-01-19 12:47:43.553,1.6987371444702148,-2.315262794494629,9.28380012512207,-0.023435592651367188,0.003195762634277344,0.005326271057128906,104
2021-01-19 12:47:43.653,1.7514114379882812,-2.355965614318848,9.269433975219727,-0.003195762634277344,0.006391525268554688,-0.011717796325683594,104
2021-01-19 12:47:43.753,1.7573966979980469,-2.395471572875977,9.341261863708496,0.006391525268554688,0.00852203369140625,0.0,104
2021-01-19 12:47:43.853,1.7538061141967771,-2.397865295410156,9.275420188903807,0.01597881317138672,0.0010652542114257812,0.0021305084228515625,104
2021-01-19 12:47:43.953,1.6963434219360352,-2.371528625488281,9.358022689819336,-0.0010652542114257812,0.006391525268554688,0.003195762634277344,104
2021-01-19 12:47:44.053,1.7753543853759766,-2.3739233016967773,9.189226150512695,-0.007456779479980469,0.003195762634277344,0.009587287902832031,104
2021-01-19 12:47:44.153,1.8088741302490237,-2.3416004180908203,9.130566596984863,-0.005326271057128906,0.005326271057128906,0.005326271057128906,104
2021-01-19 12:47:44.253,1.7825374603271484,-2.358360290527344,9.259857177734377,0.045806884765625,0.0010652542114257812,0.006391525268554688,104
2021-01-19 12:47:44.353,1.7538061141967771,-2.3380088806152344,9.263448715209961,0.045806884765625,0.0010652542114257812,0.006391525268554688,104
2021-01-19 12:47:44.453,1.731060028076172,-2.353571891784668,9.268237113952637,-0.007456779479980469,0.01810932159423828,0.02450180053710937,104
2021-01-19 12:47:44.553,1.7190885543823242,-2.3260374069213867,9.267040252685547,-0.007456779479980469,0.01810932159423828,0.02450180053710937,104
2021-01-19 12:47:44.653,1.7190885543823242,-2.3260374069213867,9.267040252685547,-0.007456779479980469,0.01810932159423828,0.02450180053710937,104
2021-01-19 12:47:44.753,1.7190885543823242,-2.3260374069213867,9.267040252685547,-0.007456779479980469,0.01810932159423828,0.02450180053710937,104
2021-01-19 12:47:44.853,1.7190885543823242,-2.3260374069213867,9.267040252685547,-0.007456779479980469,0.01810932159423828,0.02450180053710937,104
2021-01-19 12:47:44.953,1.7190885543823242,-2.3260374069213867,9.267040252685547,0.0010652542114257812,0.007456779479980469,0.02450180053710937,104
2021-01-19 12:47:45.053,1.6424722671508791,-2.296109199523926,9.310136795043944,0.0,0.02237033843994141,0.0170440673828125,104
2021-01-19 12:47:45.153,1.6616258621215818,-2.2613916397094727,9.281405448913574,-0.004261016845703125,0.026632308959960938,0.013848304748535156,104
2021-01-19 12:47:45.253,1.6664142608642578,-2.318854331970215,9.343656539916992,-0.0170440673828125,0.01597881317138672,0.013848304748535156,104
2021-01-19 12:47:45.353,1.6532459259033203,-2.29251766204834,9.32809352874756,-0.004261016845703125,0.014913558959960938,0.014913558959960938,104
2021-01-19 12:47:45.453,1.6209230422973633,-2.310474395751953,9.292180061340332,-0.006391525268554688,0.011717796325683594,0.00852203369140625,104
2021-01-19 12:47:45.553,1.6041631698608398,-2.312869071960449,9.308939933776855,-0.020239830017089844,0.013848304748535156,0.02237033843994141,104
2021-01-19 12:47:45.653,1.7980995178222656,-2.000415802001953,9.18563461303711,-0.023435592651367188,0.040480613708496094,0.014913558959960938,104
2021-01-19 12:47:45.753,1.3312158584594729,-2.53433895111084,9.323305130004883,0.006391525268554688,0.011717796325683594,-0.04367637634277344,104
2021-01-19 12:47:45.853,1.6161346435546875,-2.219491958618164,9.28619384765625,-0.011717796325683594,0.014913558959960938,-0.04474163055419922,104
2021-01-19 12:47:45.953,1.4629011154174805,-2.3942737579345703,9.35682487487793,-0.04154586791992188,-0.011717796325683594,-0.020239830017089844,104
2021-01-19 12:47:46.053,1.4700841903686523,-2.31167221069336,9.368796348571776,-0.019174575805664062,-0.020239830017089844,-0.030893325805664062,104
2021-01-19 12:47:46.153,1.5299406051635742,-2.366740226745605,9.532804489135742,-0.009587287902832031,-0.009587287902832031,-0.012783050537109377,104
2021-01-19 12:47:46.253,1.7190885543823242,-2.226675033569336,9.130566596984863,0.01597881317138672,-0.005326271057128906,0.01597881317138672,104
2021-01-19 12:47:46.353,1.5347299575805664,-2.322445869445801,9.360416412353516,0.011717796325683594,0.0,0.004261016845703125,104
2021-01-19 12:47:46.453,1.6412744522094729,-2.08182144165039,9.256265640258787,0.012783050537109377,0.00852203369140625,0.021305084228515625,104
2021-01-19 12:47:46.553,1.5933895111083984,-2.324840545654297,9.359219551086426,-0.009587287902832031,0.010652542114257812,-0.0021305084228515625,104
2021-01-19 12:47:46.653,1.5969810485839844,-2.189563751220703,9.337671279907227,-0.003195762634277344,0.009587287902832031,-0.01810932159423828,104
2021-01-19 12:47:46.753,1.595783233642578,-2.2326602935791016,9.379570960998537,-0.005326271057128906,0.009587287902832031,-0.012783050537109377,104
2021-01-19 12:47:46.853,1.5694465637207031,-2.3068828582763667,9.337671279907227,-0.012783050537109377,0.0021305084228515625,0.006391525268554688,104
2021-01-19 12:47:46.953,1.610149383544922,-2.2111120223999023,9.308939933776855,-0.02237033843994141,-0.0010652542114257812,-0.012783050537109377,104
2021-01-19 12:47:47.053,1.5598697662353516,-2.2613916397094727,9.364007949829102,-0.014913558959960938,-0.0021305084228515625,-0.011717796325683594,104
2021-01-19 12:47:47.153,1.5921926498413086,-2.251814842224121,9.431047439575195,0.01597881317138672,-0.0010652542114257812,0.0,104
2021-01-19 12:47:47.253,1.6688089370727541,-2.2697715759277344,9.213168144226074,-0.02237033843994141,0.0021305084228515625,-0.0170440673828125,104
2021-01-19 12:47:47.353,1.5909948348999023,-2.2649831771850586,9.350839614868164,-0.014913558959960938,0.01597881317138672,-0.0010652542114257812,104
2021-01-19 12:47:47.453,1.6209230422973633,-2.308080673217773,9.310136795043944,-0.0021305084228515625,-0.0010652542114257812,0.019174575805664062,104
2021-01-19 12:47:47.553,1.579023361206055,-2.255406379699707,9.369993209838867,0.006391525268554688,0.004261016845703125,0.006391525268554688,104
2021-01-19 12:47:47.653,1.5850095748901367,-2.2123088836669917,9.368796348571776,0.0,0.010652542114257812,0.004261016845703125,104
2021-01-19 12:47:47.753,1.5682497024536133,-2.1380872726440434,9.330488204956056,-0.013848304748535156,0.00852203369140625,-0.0021305084228515625,104
2021-01-19 12:47:47.853,1.5490951538085938,-2.189563751220703,9.323305130004883,-0.034089088439941406,0.0170440673828125,-0.003195762634277344,104
2021-01-19 12:47:47.953,1.579023361206055,-2.2123088836669917,9.330488204956056,0.0,-0.00852203369140625,0.0010652542114257812,104
2021-01-19 12:47:48.053,1.5383214950561523,-2.312869071960449,9.470553398132324,-0.007456779479980469,-0.012783050537109377,-0.00852203369140625,104
2021-01-19 12:47:48.153,1.6496543884277344,-2.1596355438232417,9.1868314743042,-0.010652542114257812,-0.00852203369140625,-0.005326271057128906,104
2021-01-19 12:47:48.253,1.6233177185058594,-2.308080673217773,9.33407974243164,-0.005326271057128906,0.010652542114257812,-0.0021305084228515625,104
2021-01-19 12:47:48.353,1.576629638671875,-2.239843368530273,9.33407974243164,-0.007456779479980469,0.005326271057128906,-0.0021305084228515625,104
2021-01-19 12:47:48.453,1.6257123947143557,-2.1955490112304688,9.241899490356444,0.0,-0.0010652542114257812,0.003195762634277344,104
2021-01-19 12:47:48.553,1.5897979736328125,-2.255406379699707,9.420273780822754,-0.0010652542114257812,0.012783050537109377,0.005326271057128906,104
2021-01-19 12:47:48.653,1.60296630859375,-2.2087182998657227,9.330488204956056,-0.0010652542114257812,0.00852203369140625,-0.004261016845703125,104
2021-01-19 12:47:48.753,1.60296630859375,-2.174000740051269,9.347248077392578,-0.005326271057128906,0.0021305084228515625,0.009587287902832031,104
2021-01-19 12:47:48.853,1.6424722671508791,-2.3056859970092773,9.371191024780273,0.0021305084228515625,0.007456779479980469,0.0,104
2021-01-19 12:47:48.953,1.5826148986816406,-2.218295097351074,9.392739295959473,-0.010652542114257812,0.010652542114257812,0.0021305084228515625,104
2021-01-19 12:47:49.053,1.6281061172485352,-2.22428035736084,9.31253147125244,-0.005326271057128906,0.003195762634277344,0.0021305084228515625,104
2021-01-19 12:47:49.153,1.6281061172485352,-2.1991405487060547,9.35562801361084,-0.0021305084228515625,0.013848304748535156,0.0021305084228515625,104
2021-01-19 12:47:49.253,1.5742349624633791,-2.249420166015625,9.364007949829102,-0.011717796325683594,0.006391525268554688,0.0010652542114257812,104
2021-01-19 12:47:49.353,1.5897979736328125,-2.2374496459960938,9.282602310180664,-0.007456779479980469,0.0010652542114257812,0.005326271057128906,104
2021-01-19 12:47:49.453,1.6113462448120115,-2.2374496459960938,9.322108268737793,0.0010652542114257812,0.0010652542114257812,-0.0010652542114257812,104
2021-01-19 12:47:49.553,1.5754318237304688,-2.1955490112304688,9.349641799926758,-0.003195762634277344,0.0,-0.004261016845703125,104
2021-01-19 12:47:49.653,1.5562782287597656,-2.230266571044922,9.292180061340332,0.0,-0.011717796325683594,-0.003195762634277344,104
2021-01-19 12:47:49.753,1.6257123947143557,-2.238646507263184,9.359219551086426,0.003195762634277344,-0.013848304748535156,0.0,104
2021-01-19 12:47:49.853,1.5371236801147459,-2.1644239425659184,9.35682487487793,-0.0021305084228515625,0.0021305084228515625,-0.006391525268554688,104
2021-01-19 12:47:49.953,1.5850095748901367,-2.189563751220703,9.330488204956056,-0.009587287902832031,-0.0021305084228515625,0.0,104
2021-01-19 12:47:50.053,1.595783233642578,-2.2709693908691406,9.229928970336914,-0.011717796325683594,-0.0021305084228515625,0.0,104
2021-01-19 12:47:50.153,1.5622634887695312,-2.288926124572754,9.3855562210083,-0.03515434265136719,-0.004261016845703125,-0.004261016845703125,104
2021-01-19 12:47:50.253,1.5670518875122068,-2.251814842224121,9.165283203125,-0.0010652542114257812,-0.0021305084228515625,0.0,104
2021-01-19 12:47:50.353,1.6125431060791016,-2.1943521499633794,9.317319869995117,-0.006391525268554688,-0.004261016845703125,0.0,104
2021-01-19 12:47:50.453,1.5850095748901367,-2.2075204849243164,9.290982246398926,-0.004261016845703125,-0.0021305084228515625,-0.0010652542114257812,104
2021-01-19 12:47:50.553,1.541912078857422,-2.284137725830078,9.393936157226562,-0.004261016845703125,-0.0021305084228515625,-0.0010652542114257812,104
2021-01-19 12:47:50.653,1.541912078857422,-2.284137725830078,9.393936157226562,-0.004261016845703125,-0.0021305084228515625,-0.0010652542114257812,104
2021-01-19 12:47:50.753,1.541912078857422,-2.284137725830078,9.393936157226562,-0.004261016845703125,-0.0021305084228515625,-0.0010652542114257812,104
2021-01-19 12:47:50.853,1.541912078857422,-2.284137725830078,9.393936157226562,-0.004261016845703125,-0.0021305084228515625,-0.0010652542114257812,104
2021-01-19 12:47:50.953,1.541912078857422,-2.284137725830078,9.393936157226562,-0.007456779479980469,-0.012783050537109377,-0.005326271057128906,104
2021-01-19 12:47:51.053,1.5251522064208984,-2.2123088836669917,9.349641799926758,-0.0010652542114257812,-0.012783050537109377,-0.003195762634277344,104
2021-01-19 12:47:51.153,1.541912078857422,-2.2410402297973637,9.261054039001463,-0.009587287902832031,-0.004261016845703125,-0.014913558959960938,104
2021-01-19 12:47:51.253,1.5323352813720703,-2.2793493270874023,9.361613273620604,-0.005326271057128906,-0.009587287902832031,0.0021305084228515625,104
2021-01-19 12:47:51.353,1.6113462448120115,-2.255406379699707,9.259857177734377,0.0,-0.00852203369140625,-0.0021305084228515625,104
2021-01-19 12:47:51.453,1.6209230422973633,-2.2805461883544917,9.329291343688963,0.0,0.003195762634277344,0.0,104
2021-01-19 12:47:51.553,1.5682497024536133,-2.2458295822143555,9.381964683532717,0.003195762634277344,0.0,0.0010652542114257812,104
2021-01-19 12:47:51.653,1.5909948348999023,-2.2697715759277344,9.338868141174316,-0.007456779479980469,-0.007456779479980469,-0.004261016845703125,104
2021-01-19 12:47:51.753,1.5778264999389648,-2.230266571044922,9.308939933776855,0.0,-0.0010652542114257812,-0.0021305084228515625,104
2021-01-19 12:47:51.853,1.610149383544922,-2.2637863159179688,9.301756858825684,-0.003195762634277344,-0.0010652542114257812,-0.004261016845703125,104
2021-01-19 12:47:51.953,1.5694465637207031,-2.230266571044922,9.324501991271973,0.0,0.004261016845703125,0.0,104
2021-01-19 12:47:52.053,1.579023361206055,-2.2769546508789062,9.37478256225586,0.004261016845703125,-0.007456779479980469,0.005326271057128906,104
2021-01-19 12:47:52.153,1.6604290008544922,-2.253011703491211,9.275420188903807,0.010652542114257812,0.003195762634277344,-0.0021305084228515625,104
2021-01-19 12:47:52.253,1.5562782287597656,-2.321249008178711,9.33407974243164,-0.003195762634277344,0.0010652542114257812,-0.003195762634277344,104
2021-01-19 12:47:52.353,1.504800796508789,-2.1656208038330083,9.381964683532717,-0.004261016845703125,-0.014913558959960938,-0.0021305084228515625,104
2021-01-19 12:47:52.453,1.6436691284179688,-2.215900421142578,9.251477241516113,-0.009587287902832031,0.0010652542114257812,-0.007456779479980469,104
2021-01-19 12:47:52.553,1.6221208572387695,-2.2458295822143555,9.322108268737793,-0.004261016845703125,0.0,-0.003195762634277344,104
2021-01-19 12:47:52.653,1.5658550262451172,-2.244631767272949,9.330488204956056,-0.00852203369140625,0.0,-0.003195762634277344,104
2021-01-19 12:47:52.753,1.5921926498413086,-2.2506179809570312,9.290982246398926,0.0,-0.0010652542114257812,0.004261016845703125,104
2021-01-19 12:47:52.853,1.6089525222778318,-2.22188663482666,9.30534839630127,0.005326271057128906,0.0010652542114257812,0.003195762634277344,104
2021-01-19 12:47:52.953,1.5706434249877932,-2.2601947784423833,9.311333656311037,0.0021305084228515625,-0.0010652542114257812,0.0021305084228515625,104
2021-01-19 12:47:53.053,1.5933895111083984,-2.2111120223999023,9.273025512695312,-0.005326271057128906,-0.006391525268554688,-0.0021305084228515625,104
2021-01-19 12:47:53.153,1.6089525222778318,-2.2613916397094727,9.322108268737793,0.004261016845703125,0.0021305084228515625,-0.0021305084228515625,104
2021-01-19 12:47:53.253,1.6005725860595703,-2.22308349609375,9.276617050170898,-0.00852203369140625,-0.0021305084228515625,-0.0021305084228515625,104
2021-01-19 12:47:53.353,1.5850095748901367,-2.2649831771850586,9.318516731262207,0.0010652542114257812,0.0,0.003195762634277344,104
2021-01-19 12:47:53.453,1.5574750900268557,-2.312869071960449,9.299362182617188,0.0010652542114257812,0.0,0.0,104
2021-01-19 12:47:53.553,1.5921926498413086,-2.2135066986083984,9.332881927490234,-0.0021305084228515625,-0.0010652542114257812,-0.003195762634277344,104
2021-01-19 12:47:53.653,1.606557846069336,-2.231463432312012,9.319713592529297,0.0,-0.0010652542114257812,0.0,104
2021-01-19 12:47:53.753,1.5646581649780271,-2.296109199523926,9.299362182617188,-0.006391525268554688,0.0010652542114257812,-0.003195762634277344,104
2021-01-19 12:47:53.853,1.5897979736328125,-2.2542095184326167,9.379570960998537,-0.005326271057128906,0.0010652542114257812,0.0010652542114257812,104
2021-01-19 12:47:53.953,1.6041631698608398,-2.2721662521362305,9.381964683532717,-0.0021305084228515625,0.0,0.0,104
2021-01-19 12:47:54.053,1.5909948348999023,-2.239843368530273,9.346051216125488,-0.006391525268554688,0.0021305084228515625,-0.005326271057128906,104
2021-01-19 12:47:54.153,1.5754318237304688,-2.227871894836426,9.294573783874512,0.0,0.005326271057128906,0.0,104
2021-01-19 12:47:54.253,1.541912078857422,-2.29251766204834,9.344853401184082,0.0,-0.0021305084228515625,0.006391525268554688,104
2021-01-19 12:47:54.353,1.5838127136230469,-2.3320226669311523,9.295770645141602,-0.003195762634277344,0.0010652542114257812,0.003195762634277344,104
2021-01-19 12:47:54.453,1.5610666275024414,-2.31167221069336,9.344853401184082,-0.0170440673828125,-0.0021305084228515625,0.009587287902832031,104
2021-01-19 12:47:54.553,1.610149383544922,-2.297306060791016,9.308939933776855,0.0021305084228515625,-0.006391525268554688,0.0,104
2021-01-19 12:47:54.653,1.5706434249877932,-2.22188663482666,9.295770645141602,-0.0021305084228515625,0.0,-0.003195762634277344,104
2021-01-19 12:47:54.753,1.526350021362305,-2.253011703491211,9.311333656311037,-0.003195762634277344,-0.0021305084228515625,-0.007456779479980469,104
2021-01-19 12:47:54.853,1.5191669464111328,-2.258997917175293,9.318516731262207,-0.007456779479980469,-0.003195762634277344,-0.005326271057128906,104
2021-01-19 12:47:54.953,1.576629638671875,-2.258997917175293,9.337671279907227,0.0,0.003195762634277344,-0.006391525268554688,104
2021-01-19 12:47:55.053,1.599374771118164,-2.2937145233154297,9.384359359741213,-0.00852203369140625,0.0,0.0010652542114257812,104
2021-01-19 12:47:55.153,1.5478982925415041,-2.2673778533935547,9.35443115234375,0.0010652542114257812,0.0021305084228515625,0.00852203369140625,104
2021-01-19 12:47:55.253,1.6221208572387695,-2.2410402297973637,9.416682243347168,0.009587287902832031,0.009587287902832031,0.009587287902832031,104
2021-01-19 12:47:55.353,1.6053609848022459,-2.303291320800781,9.499284744262695,0.00852203369140625,0.006391525268554688,-0.0021305084228515625,104
2021-01-19 12:47:55.453,1.4724788665771484,-2.366740226745605,9.4071044921875,-0.00852203369140625,-0.009587287902832031,0.00852203369140625,104
2021-01-19 12:47:55.553,1.5347299575805664,-2.2470264434814453,9.238308906555176,-0.005326271057128906,-0.014913558959960938,-0.012783050537109377,104
2021-01-19 12:47:55.653,1.5024070739746094,-2.2135066986083984,9.232322692871094,-0.014913558959960938,0.0010652542114257812,-0.01597881317138672,104
2021-01-19 12:47:55.753,1.508392333984375,-2.299700736999512,9.256265640258787,0.02556705474853516,0.007456779479980469,-0.006391525268554688,104
2021-01-19 12:47:55.853,1.5514898300170898,-2.253011703491211,9.293376922607422,1.0439901351928709,0.023435592651367188,0.04687213897705078,104
2021-01-19 12:47:55.953,1.511983871459961,-1.701131820678711,9.519636154174805,0.7318582534790039,0.019174575805664062,0.026632308959960938,104
2021-01-19 12:47:56.053,1.7202863693237305,-1.0355234146118164,9.411893844604492,0.02769756317138672,0.05113410949707031,0.006391525268554688,104
2021-01-19 12:47:56.153,1.3898763656616209,-1.0522832870483398,9.797371864318848,0.2247772216796875,-0.03621959686279297,0.010652542114257812,104
2021-01-19 12:47:56.253,1.4473390579223633,-0.8846836090087891,9.767443656921387,0.14594554901123047,-0.058590888977050774,0.0010652542114257812,104
2021-01-19 12:47:56.353,1.4605073928833008,-0.6955366134643555,9.769837379455566,0.14594554901123047,-0.058590888977050774,0.0010652542114257812,104
2021-01-19 12:47:56.453,1.7430315017700195,1.3012876510620115,9.511256217956543,0.0,-0.0010652542114257812,0.0,104
2021-01-19 12:47:56.553,1.6891603469848633,1.1300973892211914,9.59625244140625,0.0,-0.0010652542114257812,0.0,104
2021-01-19 12:47:56.653,1.6891603469848633,1.1300973892211914,9.59625244140625,0.0,-0.0010652542114257812,0.0,104
2021-01-19 12:47:56.753,1.6891603469848633,1.1300973892211914,9.59625244140625,0.0,-0.0010652542114257812,0.0,104
2021-01-19 12:47:56.853,1.6891603469848633,1.1300973892211914,9.59625244140625,0.0,-0.0010652542114257812,0.0,104
2021-01-19 12:47:56.953,1.6891603469848633,1.1300973892211914,9.59625244140625,-0.034089088439941406,0.0,-0.004261016845703125,104
2021-01-19 12:47:57.053,1.6293039321899414,1.0917892456054688,9.700403213500977,-0.1384878158569336,-0.02237033843994141,0.006391525268554688,104
2021-01-19 12:47:57.153,1.647260665893555,0.9744691848754884,9.56752109527588,-0.5720643997192383,-0.021305084228515625,-0.045806884765625,104
2021-01-19 12:47:57.253,1.7741575241088867,1.0403118133544922,9.71476936340332,-1.6043367385864258,-0.019174575805664062,-0.0809621810913086,104
2021-01-19 12:47:57.353,1.799297332763672,-1.3455820083618164,9.37597942352295,-0.04687213897705078,-0.006391525268554688,0.011717796325683594,104
2021-01-19 12:47:57.453,1.8316192626953125,-1.0965776443481443,9.492101669311523,-0.07989692687988281,0.012783050537109377,0.026632308959960938,104
2021-01-19 12:47:57.553,1.801691055297852,-1.006792068481445,9.48611545562744,-0.09374523162841797,0.042611122131347656,0.019174575805664062,104
2021-01-19 12:47:57.653,1.7825374603271484,-1.1564340591430664,9.452595710754396,-0.061786651611328125,0.05113410949707031,-0.020239830017089844,104
2021-01-19 12:47:57.753,1.6053609848022459,-1.3970584869384766,9.658503532409668,-0.04900360107421875,0.00852203369140625,0.010652542114257812,104
2021-01-19 12:47:57.853,1.5921926498413086,-1.3934669494628906,9.591464042663574,-0.0287628173828125,-0.014913558959960938,0.02769756317138672,104
2021-01-19 12:47:57.953,1.6807804107666016,-1.3719186782836914,9.40471076965332,-0.02450180053710937,0.007456779479980469,-0.003195762634277344,104
2021-01-19 12:47:58.053,1.6257123947143557,-1.3683271408081057,9.52681827545166,-0.0926799774169922,0.004261016845703125,-0.006391525268554688,104
2021-01-19 12:47:58.153,1.5886011123657229,-1.541912078857422,9.475341796875,-0.014913558959960938,0.004261016845703125,-0.0021305084228515625,104
2021-01-19 12:47:58.253,1.5874032974243164,-1.4593095779418943,9.501678466796877,-0.012783050537109377,0.0021305084228515625,0.0,104
2021-01-19 12:47:58.353,1.5670518875122068,-1.4617042541503906,9.47773551940918,-0.0170440673828125,0.004261016845703125,0.005326271057128906,104
2021-01-19 12:47:58.453,1.5921926498413086,-1.4640989303588867,9.459778785705566,-0.02769756317138672,0.011717796325683594,0.005326271057128906,104
2021-01-19 12:47:58.553,1.595783233642578,-1.4712810516357422,9.49569320678711,-0.03515434265136719,0.026632308959960938,0.00852203369140625,104
2021-01-19 12:47:58.653,1.5682497024536133,-1.5024070739746094,9.528016090393066,-0.020239830017089844,0.04900360107421875,0.012783050537109377,104
2021-01-19 12:47:58.753,1.4928302764892578,-1.5526866912841797,9.561535835266113,-0.007456779479980469,-0.020239830017089844,0.007456779479980469,104
2021-01-19 12:47:58.853,1.3336105346679688,-1.6185293197631836,9.83448314666748,0.0,-0.026632308959960938,-0.010652542114257812,104
2021-01-19 12:47:58.953,1.8579568862915041,-1.7131032943725586,9.180846214294434,-0.03835010528564453,0.02450180053710937,-0.02769756317138672,104
2021-01-19 12:47:59.053,1.4293813705444336,-1.7107086181640625,9.66808032989502,-0.058590888977050774,-0.0287628173828125,-0.0021305084228515625,104
2021-01-19 12:47:59.153,1.5933895111083984,-1.693948745727539,9.344853401184082,-0.05965614318847656,0.0010652542114257812,-0.054329872131347656,104
2021-01-19 12:47:59.253,1.4760694503784182,-1.7035255432128906,9.517241477966307,-0.014913558959960938,-0.011717796325683594,-0.019174575805664062,104
2021-01-19 12:47:59.353,1.6173324584960938,-1.8974618911743164,9.449005126953123,-0.026632308959960938,-0.004261016845703125,-0.009587287902832031,104
2021-01-19 12:47:59.453,1.6149377822875977,-1.8208456039428709,9.472947120666504,-0.013848304748535156,-0.0010652542114257812,-0.010652542114257812,104
2021-01-19 12:47:59.553,1.6053609848022459,-1.8232393264770508,9.398724555969238,-0.014913558959960938,0.009587287902832031,0.007456779479980469,104
2021-01-19 12:47:59.653,1.6053609848022459,-1.9082365036010744,9.484918594360352,-0.012783050537109377,0.0,0.009587287902832031,104
2021-01-19 12:47:59.753,1.6281061172485352,-1.853168487548828,9.3855562210083,0.00852203369140625,0.0010652542114257812,0.003195762634277344,104
2021-01-19 12:47:59.853,1.5443067550659182,-1.869928359985352,9.40471076965332,-0.010652542114257812,0.005326271057128906,0.0010652542114257812,104
2021-01-19 12:47:59.953,1.5969810485839844,-1.883096694946289,9.505270004272461,0.003195762634277344,-0.0010652542114257812,-0.007456779479980469,104
2021-01-19 12:48:00.053,1.5131807327270508,-1.8004941940307615,9.409499168395996,-0.010652542114257812,-0.004261016845703125,-0.003195762634277344,104
2021-01-19 12:48:00.153,1.6197261810302734,-1.8423938751220703,9.30654525756836,-0.01597881317138672,0.007456779479980469,0.007456779479980469,104
2021-01-19 12:48:00.253,1.3527650833129885,-1.2641763687133791,9.296968460083008,-0.007456779479980469,0.010652542114257812,0.0010652542114257812,104
2021-01-19 12:48:00.353,1.5227584838867188,-1.889081954956055,9.470553398132324,0.011717796325683594,0.005326271057128906,0.0,104
2021-01-19 12:48:00.453,1.5562782287597656,-1.8842935562133791,9.441822052001953,-0.006391525268554688,-0.00852203369140625,0.005326271057128906,104
2021-01-19 12:48:00.553,1.270162582397461,-1.2941045761108398,9.488510131835938,-0.013848304748535156,0.0021305084228515625,0.0,104
2021-01-19 12:48:00.653,1.5395183563232422,-1.8723220825195312,9.531606674194336,0.006391525268554688,0.0,-0.005326271057128906,104
2021-01-19 12:48:00.753,1.5107870101928709,-1.8998565673828125,9.457385063171387,-0.006391525268554688,0.004261016845703125,0.005326271057128906,104
2021-01-19 12:48:00.853,1.6448659896850586,-1.9345731735229488,9.589069366455078,0.003195762634277344,0.007456779479980469,0.0021305084228515625,104
2021-01-19 12:48:00.953,1.526350021362305,-1.860350608825684,9.573507308959961,-0.007456779479980469,-0.014913558959960938,-0.0021305084228515625,104
2021-01-19 12:48:01.053,1.4353675842285156,-1.7514114379882812,9.293376922607422,-0.021305084228515625,-0.011717796325683594,-0.0021305084228515625,104
2021-01-19 12:48:01.153,1.5886011123657229,-1.8771104812622068,9.290982246398926,-0.0010652542114257812,0.0,-0.003195762634277344,104
2021-01-19 12:48:01.253,1.4509296417236328,-1.9034481048583984,9.410696029663086,-0.0170440673828125,-0.01597881317138672,0.004261016845703125,104
2021-01-19 12:48:01.353,1.5598697662353516,-1.8783082962036133,9.296968460083008,-0.0010652542114257812,-0.00852203369140625,-0.007456779479980469,104
2021-01-19 12:48:01.453,1.6005725860595703,-1.8759136199951167,9.359219551086426,-0.01597881317138672,0.006391525268554688,-0.005326271057128906,104
2021-01-19 12:48:01.553,1.5407152175903318,-1.8064794540405276,9.488510131835938,0.0,-0.011717796325683594,-0.003195762634277344,104
2021-01-19 12:48:01.653,1.5874032974243164,-1.886688232421875,9.366402626037598,0.0,0.0010652542114257812,-0.0021305084228515625,104
2021-01-19 12:48:01.753,1.573038101196289,-1.889081954956055,9.415484428405762,-0.0021305084228515625,0.005326271057128906,-0.005326271057128906,104
2021-01-19 12:48:01.853,1.5658550262451172,-1.86274528503418,9.50646686553955,0.0,0.0,0.0,104
2021-01-19 12:48:01.953,1.5478982925415041,-1.8735198974609373,9.475341796875,0.0,0.0,-0.004261016845703125,104
2021-01-19 12:48:02.053,1.5742349624633791,-1.8495769500732424,9.440624237060547,-0.0021305084228515625,0.003195762634277344,-0.003195762634277344,104
2021-01-19 12:48:02.153,1.5778264999389648,-1.889081954956055,9.49449634552002,0.004261016845703125,0.003195762634277344,0.0,104
2021-01-19 12:48:02.253,1.5455036163330078,-1.9106311798095703,9.475341796875,-0.004261016845703125,-0.003195762634277344,0.0,104
2021-01-19 12:48:02.353,1.5646581649780271,-1.868730545043945,9.410696029663086,-0.0021305084228515625,-0.012783050537109377,0.0,104
2021-01-19 12:48:02.453,1.5359268188476562,-1.8675336837768557,9.451398849487305,0.0,0.0010652542114257812,-0.006391525268554688,104
2021-01-19 12:48:02.553,1.5670518875122068,-1.8795051574707031,9.428653717041016,0.0,-0.0010652542114257812,0.0,104
2021-01-19 12:48:02.653,1.5670518875122068,-1.8795051574707031,9.428653717041016,0.0,-0.0010652542114257812,0.0,104
2021-01-19 12:48:02.753,1.5670518875122068,-1.8795051574707031,9.428653717041016,0.0,-0.0010652542114257812,0.0,104
2021-01-19 12:48:02.853,1.5670518875122068,-1.8795051574707031,9.428653717041016,0.0,-0.0010652542114257812,0.0,104
2021-01-19 12:48:02.953,1.5670518875122068,-1.8795051574707031,9.428653717041016,0.0,-0.0010652542114257812,0.0,104
2021-01-19 12:48:03.053,1.580221176147461,-1.868730545043945,9.393936157226562,0.0021305084228515625,0.0,-0.003195762634277344,104
2021-01-19 12:48:03.153,1.5395183563232422,-1.8723220825195312,9.43463897705078,-0.006391525268554688,0.0,0.0,104
2021-01-19 12:48:03.253,1.546701431274414,-1.8423938751220703,9.483721733093262,0.005326271057128906,0.0,-0.003195762634277344,104
2021-01-19 12:48:03.353,1.5490951538085938,-1.9178133010864256,9.507664680480957,0.0809621810913086,0.020239830017089844,0.019174575805664062,104
2021-01-19 12:48:03.453,1.7358484268188477,-2.132101058959961,9.158100128173828,0.034089088439941406,0.004261016845703125,0.0010652542114257812,104
2021-01-19 12:48:03.553,1.647260665893555,-1.890279769897461,9.358022689819336,-0.010652542114257812,0.019174575805664062,0.007456779479980469,104
2021-01-19 12:48:03.653,1.801691055297852,-2.310474395751953,10.318126678466797,0.09054946899414062,0.013848304748535156,-0.005326271057128906,104
2021-01-19 12:48:03.753,1.6185293197631836,-2.0423154830932617,9.680051803588867,0.020239830017089844,0.0010652542114257812,0.0010652542114257812,104
2021-01-19 12:48:03.853,1.5909948348999023,-1.8998565673828125,9.45618724822998,-0.0170440673828125,0.0010652542114257812,-0.0021305084228515625,104
2021-01-19 12:48:03.953,1.4952239990234375,-1.869928359985352,9.439427375793457,-0.019174575805664062,-0.01597881317138672,-0.005326271057128906,104
2021-01-19 12:48:04.053,1.4688873291015625,-1.923799514770508,9.293376922607422,-0.009587287902832031,-0.01597881317138672,0.0010652542114257812,104
2021-01-19 12:48:04.153,1.6388807296752932,-1.890279769897461,9.228731155395508,0.0,-0.004261016845703125,0.0,104
2021-01-19 12:48:04.253,1.5670518875122068,-1.890279769897461,9.38316249847412,0.0,-0.0010652542114257812,-0.004261016845703125,104
2021-01-19 12:48:04.353,1.5227584838867188,-1.8783082962036133,9.42506217956543,0.0021305084228515625,-0.010652542114257812,0.0010652542114257812,104
2021-01-19 12:48:04.453,1.5874032974243164,-1.91422176361084,9.310136795043944,-0.003195762634277344,-0.00852203369140625,0.0,104
2021-01-19 12:48:04.553,1.6245145797729492,-1.8519706726074217,9.369993209838867,-0.004261016845703125,0.006391525268554688,-0.004261016845703125,104
2021-01-19 12:48:04.653,1.5143785476684568,-1.8735198974609373,9.417879104614258,-0.0010652542114257812,-0.0010652542114257812,0.0021305084228515625,104
2021-01-19 12:48:04.753,1.580221176147461,-1.8735198974609373,9.47414493560791,0.0010652542114257812,-0.009587287902832031,0.004261016845703125,104
2021-01-19 12:48:04.853,1.5909948348999023,-1.8735198974609373,9.417879104614258,0.0010652542114257812,0.005326271057128906,0.0,104
2021-01-19 12:48:04.953,1.579023361206055,-1.8196487426757808,9.505270004272461,0.0010652542114257812,-0.0010652542114257812,0.0,104
2021-01-19 12:48:05.053,1.5347299575805664,-1.856760025024414,9.414287567138672,-0.003195762634277344,0.00852203369140625,0.005326271057128906,104
2021-01-19 12:48:05.153,1.6245145797729492,-1.8064794540405276,9.346051216125488,0.0,-0.003195762634277344,-0.0021305084228515625,104
2021-01-19 12:48:05.253,1.5694465637207031,-1.8723220825195312,9.40351390838623,-0.005326271057128906,-0.003195762634277344,0.0,104
2021-01-19 12:48:05.353,1.5562782287597656,-1.8519706726074217,9.366402626037598,0.0,-0.010652542114257812,-0.0021305084228515625,104
2021-01-19 12:48:05.453,1.5155754089355469,-1.8328170776367188,9.308939933776855,0.0010652542114257812,-0.004261016845703125,0.0021305084228515625,104
2021-01-19 12:48:05.553,1.5862064361572266,-1.8136625289916992,9.440624237060547,0.00852203369140625,0.0,0.0,104
2021-01-19 12:48:05.653,1.5347299575805664,-1.8711252212524412,9.487313270568848,0.0,0.0021305084228515625,-0.006391525268554688,104
2021-01-19 12:48:05.753,1.458112716674805,-1.7561998367309568,9.419075965881348,-0.034089088439941406,-0.003195762634277344,0.0,104
2021-01-19 12:48:05.853,1.5155754089355469,-1.7561998367309568,9.512453079223633,-0.014913558959960938,0.0021305084228515625,-0.011717796325683594,104
2021-01-19 12:48:05.953,1.573038101196289,-1.848379135131836,9.531606674194336,-0.0010652542114257812,0.003195762634277344,-0.003195762634277344,104
2021-01-19 12:48:06.053,1.5897979736328125,-1.856760025024414,9.42506217956543,0.0,-0.00852203369140625,0.0010652542114257812,104
2021-01-19 12:48:06.153,1.5550813674926758,-1.8818998336791992,9.33527660369873,-0.009587287902832031,0.0021305084228515625,0.0,104
2021-01-19 12:48:06.253,1.5215606689453125,-1.9010534286499023,9.42745590209961,-0.011717796325683594,-0.0021305084228515625,-0.005326271057128906,104
2021-01-19 12:48:06.353,1.5323352813720703,-1.8842935562133791,9.411893844604492,-0.00852203369140625,-0.012783050537109377,-0.0021305084228515625,104
2021-01-19 12:48:06.453,1.579023361206055,-1.886688232421875,9.319713592529297,0.0,-0.004261016845703125,0.0,104
2021-01-19 12:48:06.553,1.5443067550659182,-1.8962650299072263,9.38316249847412,-0.0010652542114257812,0.0,-0.004261016845703125,104
2021-01-19 12:48:06.653,1.543109893798828,-1.8878850936889648,9.440624237060547,0.012783050537109377,0.003195762634277344,-0.004261016845703125,104
2021-01-19 12:48:06.753,1.5862064361572266,-1.8962650299072263,9.493298530578613,0.014913558959960938,0.005326271057128906,-0.0021305084228515625,104
2021-01-19 12:48:06.853,1.5550813674926758,-1.9202079772949217,9.517241477966307,0.006391525268554688,-0.004261016845703125,0.004261016845703125,104
2021-01-19 12:48:06.953,1.6005725860595703,-1.8818998336791992,9.483721733093262,-0.03621959686279297,0.040480613708496094,0.02556705474853516,104
2021-01-19 12:48:07.053,1.5478982925415041,-1.9465446472167969,9.330488204956056,-0.03621959686279297,0.040480613708496094,0.02556705474853516,104
2021-01-19 12:48:07.153,1.6568374633789062,-2.01358413696289,8.818113327026367,-0.03621959686279297,0.040480613708496094,0.02556705474853516,104
2021-01-19 12:48:07.253,1.6568374633789062,-2.01358413696289,8.818113327026367,-0.03621959686279297,0.040480613708496094,0.02556705474853516,104
2021-01-19 12:48:07.353,1.6568374633789062,-2.01358413696289,8.818113327026367,-0.011717796325683594,0.012783050537109377,0.0,104
2021-01-19 12:48:07.453,1.6652173995971682,-1.8579568862915041,9.288588523864746,0.026632308959960938,0.006391525268554688,-0.004261016845703125,104
2021-01-19 12:48:07.553,1.5933895111083984,-1.8388023376464844,9.377176284790039,0.005326271057128906,0.0021305084228515625,0.004261016845703125,104
2021-01-19 12:48:07.653,1.6448659896850586,-1.795705795288086,9.484918594360352,-0.007456779479980469,0.0021305084228515625,0.0010652542114257812,104
2021-01-19 12:48:07.753,1.6664142608642578,-1.9345731735229488,9.559141159057617,-0.013848304748535156,-0.006391525268554688,-0.006391525268554688,104
2021-01-19 12:48:07.853,1.6233177185058594,-1.9309816360473635,9.537592887878418,0.0,-0.011717796325683594,0.004261016845703125,104
2021-01-19 12:48:07.953,1.5886011123657229,-1.848379135131836,9.352036476135254,0.006391525268554688,0.003195762634277344,0.0,104
2021-01-19 12:48:08.053,1.6209230422973633,-1.9202079772949217,9.42625904083252,0.0,0.0,0.0,104
2021-01-19 12:48:08.153,1.4928302764892578,-1.9106311798095703,9.471750259399414,0.003195762634277344,-0.013848304748535156,0.0,104
2021-01-19 12:48:08.253,1.6376838684082031,-1.957319259643555,9.367599487304688,-0.009587287902832031,0.004261016845703125,-0.005326271057128906,104
2021-01-19 12:48:08.353,1.6221208572387695,-1.9226016998291016,9.349641799926758,0.0,-0.004261016845703125,0.0,104
2021-01-19 12:48:08.453,1.5706434249877932,-1.8950681686401367,9.435835838317873,-0.009587287902832031,-0.006391525268554688,0.0,104
2021-01-19 12:48:08.553,1.5706434249877932,-1.8950681686401367,9.435835838317873,0.00852203369140625,-0.007456779479980469,0.007456779479980469,104
2021-01-19 12:48:08.653,1.5550813674926758,-1.853168487548828,9.441822052001953,0.00852203369140625,-0.007456779479980469,0.007456779479980469,104
2021-01-19 12:48:08.753,1.5550813674926758,-1.853168487548828,9.441822052001953,0.00852203369140625,-0.007456779479980469,0.007456779479980469,104
2021-01-19 12:48:08.853,1.5550813674926758,-1.853168487548828,9.441822052001953,0.00852203369140625,-0.007456779479980469,0.007456779479980469,104
2021-01-19 12:48:08.953,1.5550813674926758,-1.853168487548828,9.441822052001953,0.00852203369140625,-0.007456779479980469,0.007456779479980469,104
2021-01-19 12:48:09.053,1.5742349624633791,-1.890279769897461,9.373584747314453,0.006391525268554688,-0.004261016845703125,0.0,104
2021-01-19 12:48:09.153,1.5383214950561523,-1.8304224014282229,9.429850578308104,0.00852203369140625,-0.00852203369140625,-0.007456779479980469,104
2021-01-19 12:48:09.253,1.60296630859375,-1.8304224014282229,9.347248077392578,0.02982807159423828,-0.003195762634277344,0.004261016845703125,104
2021-01-19 12:48:09.353,1.6005725860595703,-1.8052825927734373,9.457385063171387,0.00852203369140625,-0.0021305084228515625,0.0021305084228515625,104
2021-01-19 12:48:09.453,1.7741575241088867,-2.244631767272949,10.012856483459473,-0.06604766845703125,-0.014913558959960938,0.011717796325683594,104
2021-01-19 12:48:09.553,1.6197261810302734,-1.9489393234252932,9.583084106445312,-0.010652542114257812,-0.00852203369140625,0.009587287902832031,104
2021-01-19 12:48:09.653,1.5909948348999023,-1.8052825927734373,9.393936157226562,-0.0170440673828125,-0.03835010528564453,-0.01810932159423828,104
2021-01-19 12:48:09.753,1.5526866912841797,-1.9465446472167969,9.462173461914062,-0.04154586791992188,-0.02769756317138672,-0.02556705474853516,104
2021-01-19 12:48:09.853,1.5981779098510742,-1.7837343215942385,9.09345531463623,-0.003195762634277344,0.003195762634277344,-0.003195762634277344,104
2021-01-19 12:48:09.953,1.353961944580078,-1.6089525222778318,9.602238655090332,0.004261016845703125,0.0010652542114257812,0.0,104
2021-01-19 12:48:10.053,1.7897195816040041,-2.4182167053222656,10.152921676635742,-0.09374523162841797,-0.02769756317138672,0.007456779479980469,104
2021-01-19 12:48:10.153,1.7897195816040041,-2.1009759902954097,9.707586288452148,-0.03835010528564453,-0.02237033843994141,0.0010652542114257812,104
2021-01-19 12:48:10.253,1.6496543884277344,-1.8998565673828125,9.421470642089844,-0.013848304748535156,0.0,-0.020239830017089844,104
2021-01-19 12:48:10.353,1.5478982925415041,-1.856760025024414,9.31253147125244,0.003195762634277344,0.003195762634277344,-0.007456779479980469,104
2021-01-19 12:48:10.453,1.5598697662353516,-1.814859390258789,9.421470642089844,-0.009587287902832031,-0.009587287902832031,-0.003195762634277344,104
2021-01-19 12:48:10.553,1.6173324584960938,-1.9453477859497068,9.37478256225586,-0.010652542114257812,0.0010652542114257812,0.0,104
2021-01-19 12:48:10.653,1.5490951538085938,-1.8304224014282229,9.344853401184082,0.006391525268554688,0.011717796325683594,0.0010652542114257812,104
2021-01-19 12:48:10.753,1.4617042541503906,-1.8842935562133791,9.222745895385742,0.04900360107421875,0.013848304748535156,0.0,104
2021-01-19 12:48:10.853,1.5179700851440432,-1.8543653488159182,9.463370323181152,0.011717796325683594,-0.00852203369140625,0.00852203369140625,104
2021-01-19 12:48:10.953,1.6245145797729492,-1.8818998336791992,9.40590763092041,0.0021305084228515625,-0.004261016845703125,0.003195762634277344,104
2021-01-19 12:48:11.053,1.7430315017700195,-1.886688232421875,9.411893844604492,-0.004261016845703125,-0.009587287902832031,-0.004261016845703125,104
2021-01-19 12:48:11.153,1.5778264999389648,-1.8423938751220703,9.543578147888184,-0.011717796325683594,-0.006391525268554688,0.004261016845703125,104
2021-01-19 12:48:11.253,1.5634613037109375,-1.7825374603271484,9.384359359741213,0.0010652542114257812,0.003195762634277344,-0.009587287902832031,104
2021-01-19 12:48:11.353,1.5742349624633791,-1.8316192626953125,9.176057815551758,0.014913558959960938,0.013848304748535156,-0.0021305084228515625,104
2021-01-19 12:48:11.453,1.580221176147461,-1.8926734924316408,9.393936157226562,0.004261016845703125,-0.0010652542114257812,0.00852203369140625,104
2021-01-19 12:48:11.553,1.5945863723754885,-1.883096694946289,9.408302307128906,0.0010652542114257812,-0.0010652542114257812,0.003195762634277344,104
2021-01-19 12:48:11.653,1.6197261810302734,-1.84359073638916,9.402316093444824,0.004261016845703125,0.006391525268554688,0.0010652542114257812,104
2021-01-19 12:48:11.753,1.6484575271606443,-1.8675336837768557,9.432244300842283,0.0,-0.003195762634277344,0.0010652542114257812,104
2021-01-19 12:48:11.853,1.6484575271606443,-1.868730545043945,9.44780731201172,-0.006391525268554688,-0.0021305084228515625,-0.005326271057128906,104
2021-01-19 12:48:11.953,1.5897979736328125,-1.8759136199951167,9.413090705871582,0.0,-0.004261016845703125,0.0,104
2021-01-19 12:48:12.053,1.558671951293945,-1.856760025024414,9.431047439575195,0.003195762634277344,-0.00852203369140625,-0.003195762634277344,104
2021-01-19 12:48:12.153,1.6340923309326172,-1.8591537475585935,9.417879104614258,0.005326271057128906,0.0010652542114257812,0.0,104
2021-01-19 12:48:12.253,1.5012102127075195,-1.8759136199951167,9.462173461914062,0.005326271057128906,-0.0010652542114257812,0.0010652542114257812,104
2021-01-19 12:48:12.353,1.5826148986816406,-1.799297332763672,9.571112632751463,-0.0021305084228515625,-0.02237033843994141,0.004261016845703125,104
2021-01-19 12:48:12.453,1.693948745727539,-1.8771104812622068,9.380767822265623,-0.009587287902832031,0.009587287902832031,-0.00852203369140625,104
2021-01-19 12:48:12.553,1.5897979736328125,-1.883096694946289,9.445413589477539,-0.005326271057128906,0.003195762634277344,-0.003195762634277344,104
2021-01-19 12:48:12.653,1.6412744522094729,-1.8663368225097656,9.440624237060547,0.0,-0.0010652542114257812,0.007456779479980469,104
2021-01-19 12:48:12.753,1.6185293197631836,-1.8842935562133791,9.415484428405762,-0.006391525268554688,-0.0021305084228515625,0.003195762634277344,104
2021-01-19 12:48:12.853,1.5874032974243164,-1.8232393264770508,9.42506217956543,-0.005326271057128906,0.0021305084228515625,-0.005326271057128906,104
2021-01-19 12:48:12.953,1.6305007934570312,-1.8938703536987305,9.390344619750977,-0.006391525268554688,-0.0010652542114257812,-0.00852203369140625,104
2021-01-19 12:48:13.053,1.599374771118164,-1.855562210083008,9.422667503356934,0.0010652542114257812,-0.0021305084228515625,0.0,104
2021-01-19 12:48:13.153,1.5562782287597656,-1.890279769897461,9.450201988220217,-0.0021305084228515625,-0.013848304748535156,0.0010652542114257812,104
2021-01-19 12:48:13.253,1.6005725860595703,-1.8411970138549805,9.35443115234375,-0.009587287902832031,0.004261016845703125,-0.006391525268554688,104
2021-01-19 12:48:13.353,1.5622634887695312,-1.8232393264770508,9.530409812927246,-0.01810932159423828,-0.006391525268554688,0.0010652542114257812,104
2021-01-19 12:48:13.453,1.5909948348999023,-1.7669744491577148,9.45618724822998,0.009587287902832031,0.007456779479980469,0.005326271057128906,104
2021-01-19 12:48:13.553,1.5658550262451172,-1.889081954956055,9.431047439575195,0.02237033843994141,0.006391525268554688,0.009587287902832031,104
2021-01-19 12:48:13.653,1.5383214950561523,-1.9549245834350584,9.47653865814209,0.0170440673828125,-0.01810932159423828,0.012783050537109377,104
2021-01-19 12:48:13.753,1.6544437408447266,-1.7777481079101562,9.35562801361084,0.04474163055419922,-0.003195762634277344,0.03728485107421875,104
2021-01-19 12:48:13.853,1.632894515991211,-1.7777481079101562,9.43463897705078,-0.003195762634277344,-0.012783050537109377,0.0,104
2021-01-19 12:48:13.953,1.632894515991211,-1.860350608825684,9.332881927490234,-0.005326271057128906,0.003195762634277344,-0.01597881317138672,104
2021-01-19 12:48:14.053,1.5886011123657229,-1.7370462417602541,9.49449634552002,-0.005326271057128906,-0.010652542114257812,-0.01597881317138672,104
2021-01-19 12:48:14.153,1.6580343246459959,-1.8471822738647459,9.380767822265623,-0.0170440673828125,0.005326271057128906,-0.02237033843994141,104
2021-01-19 12:48:14.253,1.6221208572387695,-1.923799514770508,9.398724555969238,-0.004261016845703125,0.003195762634277344,0.0,104
2021-01-19 12:48:14.353,1.5742349624633791,-1.8399991989135744,9.44780731201172,-0.004261016845703125,0.003195762634277344,0.0,104
2021-01-19 12:48:14.453,1.626909255981445,-1.8423938751220703,9.401119232177734,-0.0010652542114257812,-0.004261016845703125,-0.004261016845703125,104
2021-01-19 12:48:14.553,1.5945863723754885,-1.8759136199951167,9.347248077392578,-0.0010652542114257812,-0.004261016845703125,-0.004261016845703125,104
2021-01-19 12:48:14.653,1.5945863723754885,-1.8759136199951167,9.347248077392578,-0.0010652542114257812,-0.004261016845703125,-0.004261016845703125,104
2021-01-19 12:48:14.753,1.5945863723754885,-1.8759136199951167,9.347248077392578,-0.0010652542114257812,-0.004261016845703125,-0.004261016845703125,104
2021-01-19 12:48:14.853,1.5945863723754885,-1.8759136199951167,9.347248077392578,-0.0010652542114257812,-0.004261016845703125,-0.004261016845703125,104
2021-01-19 12:48:14.953,1.5945863723754885,-1.8759136199951167,9.347248077392578,-0.004261016845703125,-0.0010652542114257812,-0.005326271057128906,104
2021-01-19 12:48:15.053,1.6233177185058594,-1.845985412597656,9.358022689819336,-0.0021305084228515625,-0.004261016845703125,-0.003195762634277344,104
2021-01-19 12:48:15.153,1.632894515991211,-1.8304224014282229,9.40590763092041,-0.004261016845703125,-0.0010652542114257812,0.0010652542114257812,104
2021-01-19 12:48:15.253,1.5850095748901367,-1.8507738113403318,9.489706993103027,-0.011717796325683594,-0.0010652542114257812,-0.0021305084228515625,104
2021-01-19 12:48:15.353,1.6257123947143557,-1.8807020187377932,9.402316093444824,-0.003195762634277344,0.0021305084228515625,0.003195762634277344,104
2021-01-19 12:48:15.453,1.6077547073364258,-1.814859390258789,9.451398849487305,0.006391525268554688,-0.0021305084228515625,0.0,104
2021-01-19 12:48:15.553,1.599374771118164,-1.8842935562133791,9.422667503356934,-0.0010652542114257812,-0.004261016845703125,0.0010652542114257812,104
2021-01-19 12:48:15.653,1.6113462448120115,-1.8507738113403318,9.359219551086426,0.0010652542114257812,-0.0010652542114257812,0.0010652542114257812,104
2021-01-19 12:48:15.753,1.6807804107666016,-1.856760025024414,9.352036476135254,-0.0021305084228515625,0.0021305084228515625,-0.004261016845703125,104
2021-01-19 12:48:15.853,1.6293039321899414,-1.8447885513305664,9.3855562210083,0.0,0.0,-0.0021305084228515625,104
2021-01-19 12:48:15.953,1.573038101196289,-1.868730545043945,9.414287567138672,-0.0021305084228515625,-0.00852203369140625,0.0,104
2021-01-19 12:48:16.053,1.6221208572387695,-1.8208456039428709,9.274222373962402,0.013848304748535156,-0.0010652542114257812,-0.00852203369140625,104
2021-01-19 12:48:16.153,1.6281061172485352,-1.8495769500732424,9.274222373962402,0.02556705474853516,0.011717796325683594,-0.010652542114257812,104
2021-01-19 12:48:16.253,1.667612075805664,-1.9010534286499023,9.308939933776855,0.04900360107421875,0.03941535949707031,0.014913558959960938,104
2021-01-19 12:48:16.353,1.6281061172485352,-1.989642143249512,9.417879104614258,0.04900360107421875,0.040480613708496094,0.11505126953125,104
2021-01-19 12:48:16.453,-0.0790109634399414,-2.406245231628418,11.860039710998535,0.8042984008789062,-0.1438150405883789,0.9470481872558594,104
2021-01-19 12:48:16.553,-2.8312292098999023,0.4118146896362305,5.537957191467285,-1.491415023803711,-0.09587669372558594,1.1835441589355469,104
2021-01-19 12:48:16.653,-2.4768762588500977,-2.251814842224121,7.209160804748535,1.4562606811523438,1.0887327194213867,1.8024816513061523,104
2021-01-19 12:48:16.753,-3.739856719970703,-9.662095069885254,11.961795806884766,1.7641315460205078,3.3876438140869136,0.3749837875366211,104
2021-01-19 12:48:16.853,-3.8200645446777344,-2.964111328125,19.60072898864746,-0.518798828125,1.6522750854492188,-1.7854375839233398,104
2021-01-19 12:48:16.953,-0.7206764221191406,3.737462043762207,6.481301307678223,-0.39522457122802734,1.0290765762329102,-0.004261016845703125,104
2021-01-19 12:48:17.053,-3.5411319732666016,-1.285724639892578,13.69644832611084,-0.19281864166259768,-0.7659482955932617,0.0170440673828125,104
2021-01-19 12:48:17.153,-8.148913383483888,-2.65285587310791,9.469355583190918,0.2567358016967773,0.2013406753540039,-0.39522457122802734,104
2021-01-19 12:48:17.253,-4.447364807128906,-0.682368278503418,7.895120620727539,-0.3504819869995117,0.747838020324707,-0.18003463745117188,104
2021-01-19 12:48:17.353,-6.476512908935548,-2.1656208038330083,7.139726638793945,-0.5283870697021484,1.0631656646728516,0.3590049743652344,104
2021-01-19 12:48:17.453,-4.575458526611328,-1.4652957916259766,11.824125289916992,0.0916147232055664,-0.243952751159668,-0.334503173828125,104
2021-01-19 12:48:17.553,-5.20395565032959,-1.3395957946777344,7.573090553283691,0.01597881317138672,-0.6540918350219727,-0.5933694839477539,104
2021-01-19 12:48:17.653,-6.897905349731445,-2.783344268798828,8.093845367431639,-0.4772529602050781,-0.0916147232055664,-0.15233707427978516,104
2021-01-19 12:48:17.753,-5.433806419372559,-2.0925960540771484,8.656499862670897,-0.39522457122802734,-0.04367637634277344,0.3504819869995117,104
2021-01-19 12:48:17.853,-5.115367889404297,-1.5874032974243164,8.171659469604492,-0.07350540161132812,-0.4868402481079102,0.3973550796508789,104
2021-01-19 12:48:17.953,-5.606193542480469,-4.386310577392578,8.37517261505127,-0.3888330459594727,-0.3590049743652344,0.2332992553710937,104
2021-01-19 12:48:18.053,-6.216733932495117,-1.077423095703125,8.091450691223145,0.0916147232055664,0.1789693832397461,-0.026632308959960938,104
2021-01-19 12:48:18.153,-5.842029571533202,-3.2921276092529297,8.497280120849611,-0.011717796325683594,0.2301034927368164,-0.05006885528564453,104
2021-01-19 12:48:18.253,-5.815692901611327,-2.6983470916748047,7.798151969909668,-0.01597881317138672,0.3622007369995117,-0.0862884521484375,104
2021-01-19 12:48:18.353,-5.662459373474121,-2.752218246459961,8.35721492767334,0.05965614318847656,0.3930940628051758,-0.030893325805664062,104
2021-01-19 12:48:18.453,-5.336837768554688,-3.1568508148193364,8.112998962402344,0.07989692687988281,0.13635730743408206,-0.08841896057128906,104
2021-01-19 12:48:18.553,-5.919843673706055,-2.7605981826782227,7.1361351013183585,0.07350540161132812,-0.057525634765625,-0.16405487060546875,104
2021-01-19 12:48:18.653,-6.105400085449219,-2.7641897201538086,7.195992469787598,-0.0170440673828125,-0.1736431121826172,0.01810932159423828,104
2021-01-19 12:48:18.753,-6.5172157287597665,-2.9162263870239262,6.763825416564941,-0.1619243621826172,-0.3728532791137695,0.1502065658569336,104
2021-01-19 12:48:18.853,-5.785764694213867,-2.719895362854004,7.907092094421388,-0.2929563522338867,-0.5294523239135742,0.196014404296875,104
2021-01-19 12:48:18.953,-6.957761764526367,-2.7869348526000977,7.823291778564452,-0.08202743530273438,0.019174575805664062,0.1832304000854492,104
2021-01-19 12:48:19.053,-5.071073532104492,-2.923408508300781,8.214756011962889,-0.061786651611328125,0.00852203369140625,0.09374523162841797,104
2021-01-19 12:48:19.153,-5.5619001388549805,-3.092205047607422,8.469746589660645,-0.09374523162841797,-0.15233707427978516,-0.042611122131347656,104
2021-01-19 12:48:19.253,-4.7239036560058585,-3.2107219696044917,7.937020301818848,-0.03728485107421875,-0.1331615447998047,-0.2759113311767578,104
2021-01-19 12:48:19.353,-5.01241397857666,-3.0096025466918945,8.281795501708983,-0.04900360107421875,-0.06817817687988281,-0.18216514587402344,104
2021-01-19 12:48:19.453,-5.699570655822754,-2.056681632995605,8.203981399536133,-0.005326271057128906,-0.04474163055419922,0.026632308959960938,104
2021-01-19 12:48:19.553,-5.44338321685791,-3.2681846618652344,8.277007102966309,0.09694194793701172,-0.2450180053710937,0.09694194793701172,104
2021-01-19 12:48:19.653,-4.974104881286621,-3.8104877471923833,7.764632225036621,-0.030893325805664062,-0.5156030654907227,0.1970796585083008,104
2021-01-19 12:48:19.753,-4.6029930114746085,-3.3986721038818364,8.011242866516112,0.033023834228515625,-0.7766008377075195,0.2791070938110352,104
2021-01-19 12:48:19.853,-4.0978002548217765,-3.2023420333862305,8.662485122680664,-0.023435592651367188,-1.0887327194213867,0.482579231262207,104
2021-01-19 12:48:19.953,-3.0060110092163086,-3.340012550354004,8.755862236022951,-0.28549957275390625,-1.3465347290039062,0.5347785949707031,104
2021-01-19 12:48:20.053,-1.727468490600586,-2.985660552978516,8.948601722717285,-0.18749141693115234,-1.4083223342895508,0.4112043380737305,104
2021-01-19 12:48:20.153,-0.8571500778198242,-2.8300323486328125,9.514846801757812,0.0916147232055664,-1.1643686294555664,0.4932317733764648,104
2021-01-19 12:48:20.253,-0.1101360321044922,-3.2250871658325195,9.999688148498537,-0.3462209701538086,-0.726531982421875,0.5986967086791992,104
2021-01-19 12:48:20.353,-0.1951332092285156,-3.1305141448974614,10.018841743469238,-0.6519613265991211,0.4420976638793945,-0.6519613265991211,104
2021-01-19 12:48:20.453,-1.970487594604492,-4.072660446166991,10.398334503173828,-0.5369091033935547,-0.6615486145019531,0.5539541244506836,104
2021-01-19 12:48:20.553,0.04429340362548828,-3.972101211547852,7.965751647949219,-0.5369091033935547,-0.6615486145019531,0.5539541244506836,104
2021-01-19 12:48:20.653,0.04429340362548828,-3.972101211547852,7.965751647949219,-0.5369091033935547,-0.6615486145019531,0.5539541244506836,104
2021-01-19 12:48:20.753,0.04429340362548828,-3.972101211547852,7.965751647949219,-0.5369091033935547,-0.6615486145019531,0.5539541244506836,104
2021-01-19 12:48:20.853,0.04429340362548828,-3.972101211547852,7.965751647949219,-0.5369091033935547,-0.6615486145019531,0.5539541244506836,104
2021-01-19 12:48:20.953,0.04429340362548828,-3.972101211547852,7.965751647949219,-0.5369091033935547,-0.6615486145019531,0.5539541244506836,104
2021-01-19 12:48:21.053,0.4429407119750977,-3.9936494827270512,9.417879104614258,-0.045806884765625,-0.3664617538452149,0.08948421478271484,104
2021-01-19 12:48:21.153,0.3052692413330078,-4.124137878417969,8.99648666381836,0.006391525268554688,-0.057525634765625,-0.1438150405883789,104
2021-01-19 12:48:21.253,0.4525175094604492,-3.9709043502807617,8.792973518371582,-0.031958580017089844,-0.12996578216552734,-0.2641935348510742,104
2021-01-19 12:48:21.353,0.4644889831542969,-3.9852695465087886,8.237502098083496,-0.15659809112548828,-0.21092796325683594,-0.2194509506225586,104
2021-01-19 12:48:21.453,0.8080673217773438,-3.950552940368652,8.540377616882324,-0.21092796325683594,-0.15979385375976562,-0.0021305084228515625,104
2021-01-19 12:48:21.553,1.0618600845336914,-4.0894203186035165,9.672869682312012,-0.3845720291137695,0.026632308959960938,0.10759449005126953,104
2021-01-19 12:48:21.653,0.9624977111816406,-3.8152761459350586,8.621782302856445,0.040480613708496094,0.2652587890625,-0.08735370635986328,104
2021-01-19 12:48:21.753,1.4485359191894531,-5.712738990783691,8.484111785888674,0.3238496780395508,0.4378366470336914,-0.243952751159668,104
2021-01-19 12:48:21.853,0.6093425750732422,-4.75383186340332,8.04476261138916,0.10759449005126953,0.21732044219970706,-0.07776641845703125,104
2021-01-19 12:48:21.953,-0.11731910705566405,-4.479687690734863,8.038776397705076,0.07030868530273438,0.2130584716796875,0.11398601531982422,104
2021-01-19 12:48:22.053,0.02513980865478516,-4.933403015136719,8.497280120849611,0.045806884765625,0.019174575805664062,-0.031958580017089844,104
2021-01-19 12:48:22.153,-0.304072380065918,-4.079843521118163,8.487703323364258,-0.034089088439941406,-0.18642616271972656,-0.03515434265136719,104
2021-01-19 12:48:22.253,-0.014365196228027344,-4.199557304382323,8.520026206970215,-0.11292076110839845,-0.1779041290283203,0.08522319793701172,104
2021-01-19 12:48:22.353,0.13886737823486328,-4.15526294708252,8.810930252075195,-0.042611122131347656,-0.0926799774169922,0.10013771057128906,104
2021-01-19 12:48:22.453,0.13048744201660156,-4.34201717376709,8.723539352416992,0.009587287902832031,-0.0809621810913086,0.11611652374267578,104
2021-01-19 12:48:22.553,0.5794143676757812,-4.601795196533203,8.59664249420166,-0.04687213897705078,-0.10652923583984376,0.12357425689697266,104
2021-01-19 12:48:22.653,0.5806112289428711,-4.447364807128906,8.692414283752441,-0.011717796325683594,-0.03621959686279297,0.0809621810913086,104
2021-01-19 12:48:22.753,0.4668827056884766,-4.454547882080078,8.771425247192383,0.061786651611328125,0.021305084228515625,0.033023834228515625,104
2021-01-19 12:48:22.853,0.2513980865478516,-4.699960708618164,8.801353454589844,0.2077322006225586,0.05965614318847656,-0.02237033843994141,104
2021-01-19 12:48:22.953,0.3280153274536133,-4.866362571716309,9.632166862487793,-0.4729909896850586,-0.1033334732055664,-0.10120296478271484,104
2021-01-19 12:48:23.053,0.7745475769042969,-3.927806854248047,8.338061332702638,0.012783050537109377,-0.08735370635986328,-0.1949491500854492,104
2021-01-19 12:48:23.153,0.6979303359985352,-4.604189872741699,7.8208980560302725,0.03728485107421875,-0.045806884765625,-0.17044734954833984,104
2021-01-19 12:48:23.253,0.2813272476196289,-3.8152761459350586,7.276200294494629,-0.401616096496582,0.007456779479980469,0.1097249984741211,104
2021-01-19 12:48:23.353,0.6261024475097656,-5.0591020584106445,8.607417106628418,-0.1906881332397461,-0.2066669464111328,0.10546398162841797,104
2021-01-19 12:48:23.453,0.8284187316894531,-5.655276298522949,8.605022430419924,-0.011717796325683594,-0.014913558959960938,-0.01597881317138672,104
2021-01-19 12:48:23.553,0.6081457138061523,-5.092621803283691,8.18602466583252,0.004261016845703125,0.10759449005126953,-0.11185550689697266,104
2021-01-19 12:48:23.653,0.917006492614746,-5.024385452270508,8.126168251037598,0.06604766845703125,0.14168357849121094,-0.1448802947998047,104
2021-01-19 12:48:23.753,0.22386455535888672,-4.768198013305664,8.090253829956055,-0.003195762634277344,0.010652542114257812,0.04474163055419922,104
2021-01-19 12:48:23.853,0.5985679626464844,-5.2494468688964835,8.124970436096191,-0.11079025268554688,-0.10759449005126953,0.11292076110839845,104
2021-01-19 12:48:23.953,0.7386331558227539,-5.15247917175293,8.205179214477539,0.006391525268554688,-0.009587287902832031,-0.07776641845703125,104
2021-01-19 12:48:24.053,0.336395263671875,-4.954951286315918,8.011242866516112,-0.0021305084228515625,-0.02556705474853516,-0.030893325805664062,104
2021-01-19 12:48:24.153,0.9385547637939452,-5.218320846557617,8.187221527099611,-0.04367637634277344,-0.13103103637695312,0.11505126953125,104
2021-01-19 12:48:24.253,0.9122180938720704,-5.129733085632324,8.178841590881348,-0.009587287902832031,-0.08309268951416016,0.03941535949707031,104
2021-01-19 12:48:24.353,0.7242679595947266,-5.176421165466309,8.117788314819336,0.02237033843994141,-0.014913558959960938,-0.006391525268554688,104
2021-01-19 12:48:24.453,0.8870782852172852,-5.116564750671387,8.085465431213379,-0.007456779479980469,-0.06498241424560547,0.033023834228515625,104
2021-01-19 12:48:24.553,0.7362394332885742,-5.093818664550781,8.092648506164549,-0.006391525268554688,-0.045806884765625,0.04367637634277344,104
2021-01-19 12:48:24.653,1.0295372009277344,-5.115367889404297,8.127365112304688,-0.005326271057128906,0.003195762634277344,0.006391525268554688,104
2021-01-19 12:48:24.753,0.9696807861328124,-5.130929946899414,8.120182037353517,0.023435592651367188,0.03728485107421875,-0.05539512634277344,104
2021-01-19 12:48:24.853,0.8152503967285156,-5.156069755554199,8.104619026184082,0.006391525268554688,0.026632308959960938,-0.04474163055419922,104
2021-01-19 12:48:24.953,0.8930635452270508,-5.093818664550781,8.099830627441406,-0.0010652542114257812,0.03941535949707031,-0.054329872131347656,104
2021-01-19 12:48:25.053,0.7661676406860352,-5.039947509765625,8.136941909790039,0.006391525268554688,0.058590888977050774,-0.0628519058227539,104
2021-01-19 12:48:25.153,0.8284187316894531,-5.071073532104492,8.182433128356934,-0.009587287902832031,0.030893325805664062,-0.040480613708496094,104
2021-01-19 12:48:25.253,0.7470130920410156,-5.099804878234863,8.029199600219728,-0.026632308959960938,0.006391525268554688,-0.01597881317138672,104
2021-01-19 12:48:25.353,0.7613792419433594,-5.158464431762695,8.09504222869873,-0.011717796325683594,-0.003195762634277344,-0.00852203369140625,104
2021-01-19 12:48:25.453,0.773350715637207,-5.13212776184082,8.077085494995117,-0.010652542114257812,-0.02450180053710937,0.0021305084228515625,104
2021-01-19 12:48:25.553,0.8128557205200195,-5.139309883117676,8.122576713562013,-0.01597881317138672,-0.042611122131347656,0.01810932159423828,104
2021-01-19 12:48:25.653,0.8775014877319336,-5.118958473205566,8.118985176086426,-0.00852203369140625,-0.031958580017089844,0.007456779479980469,104
2021-01-19 12:48:25.753,0.8068704605102539,-5.15367603302002,8.023214340209961,-0.01597881317138672,-0.03621959686279297,0.01597881317138672,104
2021-01-19 12:48:25.853,0.9660892486572266,-5.185998916625977,8.093845367431639,-0.0170440673828125,-0.03515434265136719,0.020239830017089844,104
2021-01-19 12:48:25.953,0.8894729614257812,-5.195575714111328,8.033987998962402,-0.009587287902832031,-0.021305084228515625,0.010652542114257812,104
2021-01-19 12:48:26.053,0.8966550827026367,-5.185998916625977,8.004059791564941,-0.00852203369140625,-0.0287628173828125,0.01810932159423828,104
2021-01-19 12:48:26.153,0.9301748275756836,-5.2350807189941415,8.056734085083008,-0.005326271057128906,-0.02982807159423828,0.01810932159423828,104
2021-01-19 12:48:26.253,0.9337663650512696,-5.211138725280762,8.042367935180664,0.0,-0.01810932159423828,0.010652542114257812,104
2021-01-19 12:48:26.353,0.956512451171875,-5.213532447814941,8.049551010131836,-0.03515434265136719,0.1906881332397461,0.32491493225097656,104
2021-01-19 12:48:26.453,0.09098243713378906,-4.476096153259277,8.729525566101074,0.16831684112548828,0.8543672561645508,0.578455924987793,104
2021-01-19 12:48:26.553,0.1975269317626953,-4.509615898132324,8.749876022338867,0.1789693832397461,0.8341274261474609,0.6136102676391602,104
2021-01-19 12:48:26.653,0.20710468292236328,-4.63411808013916,8.711567878723145,0.17044734954833984,0.8128213882446289,0.647700309753418,104
2021-01-19 12:48:26.753,0.3280153274536133,-4.673624038696289,8.652908325195312,0.14807605743408206,0.7872543334960938,0.6743326187133789,104
2021-01-19 12:48:26.853,-0.2944955825805664,-4.859180450439453,8.212361335754395,0.2418222427368164,0.9268074035644532,0.3163928985595703,104
2021-01-19 12:48:26.953,-0.2944955825805664,-4.859180450439453,8.212361335754395,0.2418222427368164,0.9268074035644532,0.3163928985595703,104
2021-01-19 12:48:27.053,-1.4569158554077148,-4.776577949523926,8.338061332702638,0.14807605743408206,0.8394536972045898,0.1608591079711914,104
2021-01-19 12:48:27.153,-2.2027320861816406,-5.402680397033691,8.081873893737793,-0.15233707427978516,0.7329235076904297,0.1736431121826172,104
2021-01-19 12:48:27.253,-2.3607540130615234,-3.7769680023193364,7.61379337310791,0.045806884765625,0.2301034927368164,-0.03835010528564453,104
2021-01-19 12:48:27.353,-4.416238784790039,-5.794144630432129,7.896317481994629,0.10546398162841797,0.10865974426269533,0.07244014739990234,104
2021-01-19 12:48:27.453,-4.235471725463866,-4.950162887573242,7.1349382400512695,0.040480613708496094,0.13422679901123047,0.2982826232910156,104
2021-01-19 12:48:27.553,-3.6584510803222656,-4.727495193481445,7.914274215698242,0.09694194793701172,0.05006885528564453,0.08948421478271484,104
2021-01-19 12:48:27.653,-4.3994789123535165,-4.5958099365234375,7.9454002380371085,0.06817817687988281,0.3068046569824219,0.07563591003417969,104
2021-01-19 12:48:27.753,-3.662042617797852,-4.0080156326293945,7.7873783111572275,0.01597881317138672,0.3004131317138672,-0.09481048583984376,104
2021-01-19 12:48:27.853,-4.32405948638916,-4.610175132751465,7.782589912414551,-0.04687213897705078,0.33130645751953125,-0.14807605743408206,104
2021-01-19 12:48:27.953,-4.500039100646973,-4.610175132751465,7.747872352600098,-0.12357425689697266,0.322784423828125,-0.054329872131347656,104
2021-01-19 12:48:28.053,-4.624541282653809,-4.6293296813964835,7.6090049743652335,-0.12037849426269533,0.22158145904541016,0.02237033843994141,104
2021-01-19 12:48:28.153,-4.7095375061035165,-4.677215576171875,7.320494651794434,-0.14274978637695312,0.196014404296875,0.09481048583984376,104
2021-01-19 12:48:28.253,-5.1285362243652335,-4.877137184143066,7.16606330871582,-0.17151260375976562,0.2258424758911133,0.1832304000854492,104
2021-01-19 12:48:28.353,-5.379935264587402,-5.06508731842041,6.834456443786621,-0.25140953063964844,0.2716503143310547,0.2482137680053711,104
2021-01-19 12:48:28.453,-4.8986854553222665,-5.335640907287598,6.535172462463379,-0.17151260375976562,0.2205162048339844,0.2205162048339844,104
2021-01-19 12:48:28.553,-5.1836042404174805,-5.571476936340332,6.052725791931152,-0.0926799774169922,0.15872859954833984,0.22903823852539065,104
2021-01-19 12:48:28.653,-5.317683219909668,-5.338034629821777,5.911463737487793,-0.03835010528564453,0.15446758270263672,0.1448802947998047,104
2021-01-19 12:48:28.753,-5.5870399475097665,-5.044735908508301,6.061105728149414,-0.01597881317138672,0.15127182006835938,0.09481048583984376,104
2021-01-19 12:48:28.853,-5.510422706604004,-4.9645280838012695,6.073077201843263,0.014913558959960938,0.1097249984741211,-0.030893325805664062,104
2021-01-19 12:48:28.953,-5.582250595092773,-5.2482500076293945,5.955758094787598,0.033023834228515625,0.07137489318847656,-0.04367637634277344,104
2021-01-19 12:48:29.053,-5.6205596923828125,-5.177618980407715,5.985686302185059,0.042611122131347656,0.02556705474853516,-0.005326271057128906,104
2021-01-19 12:48:29.153,-5.812101364135742,-5.039947509765625,6.009629249572754,0.03728485107421875,0.040480613708496094,0.0170440673828125,104
2021-01-19 12:48:29.253,-5.834847450256348,-5.049525260925293,5.952166557312013,0.0,0.08948421478271484,-0.005326271057128906,104
2021-01-19 12:48:29.353,-5.725907325744629,-5.13332462310791,5.812101364135742,-0.007456779479980469,0.06391716003417969,0.0,104
2021-01-19 12:48:29.453,-5.794144630432129,-5.037553787231445,5.840832710266112,0.0,0.031958580017089844,0.003195762634277344,104
2021-01-19 12:48:29.553,-5.810904502868652,-5.054313659667969,5.7713985443115225,0.019174575805664062,0.013848304748535156,-0.01810932159423828,104
2021-01-19 12:48:29.653,-5.796538352966309,-5.164449691772461,5.8551979064941415,0.019174575805664062,-0.010652542114257812,0.006391525268554688,104
2021-01-19 12:48:29.753,-5.783370018005371,-5.049525260925293,5.82407283782959,0.010652542114257812,-0.040480613708496094,-0.005326271057128906,104
2021-01-19 12:48:29.853,-6.01441764831543,-5.077058792114258,5.950969696044923,0.045806884765625,0.16405487060546875,0.00852203369140625,104
2021-01-19 12:48:29.953,-5.831255912780763,-4.806506156921387,6.1161746978759775,-0.2024059295654297,-0.06498241424560547,-0.019174575805664062,104
2021-01-19 12:48:30.053,-5.8228759765625,-5.420637130737305,5.80491828918457,-0.02556705474853516,-0.15127182006835938,0.09907245635986328,104
2021-01-19 12:48:30.153,-5.7342872619628915,-5.036355972290039,5.937800407409668,-0.003195762634277344,-0.09587669372558594,0.040480613708496094,104
2021-01-19 12:48:30.253,-5.769004821777344,-5.13332462310791,5.880338668823242,-0.007456779479980469,-0.010652542114257812,0.0021305084228515625,104
2021-01-19 12:48:30.353,-5.741470336914063,-5.126141548156738,5.940195083618164,0.02237033843994141,-0.009587287902832031,0.0170440673828125,104
2021-01-19 12:48:30.453,-5.749850273132324,-5.145296096801758,5.956954956054688,0.021305084228515625,-0.007456779479980469,0.02450180053710937,104
2021-01-19 12:48:30.553,-5.788158416748048,-5.044735908508301,6.01561450958252,0.012783050537109377,-0.014913558959960938,0.013848304748535156,104
2021-01-19 12:48:30.653,-5.7773847579956055,-5.0602989196777335,6.064697265625,0.00852203369140625,-0.0021305084228515625,-0.01810932159423828,104
2021-01-19 12:48:30.753,-5.731893539428711,-5.081847190856934,6.010826110839844,0.02450180053710937,0.006391525268554688,-0.012783050537109377,104
2021-01-19 12:48:30.853,-5.7713985443115225,-5.122550010681152,5.9832916259765625,0.011717796325683594,-0.006391525268554688,0.003195762634277344,104
2021-01-19 12:48:30.953,-5.75224494934082,-5.050722122192383,6.002446174621582,0.0010652542114257812,-0.00852203369140625,0.00852203369140625,104
2021-01-19 12:48:31.053,-5.740273475646973,-4.986076354980469,6.029980659484862,0.005326271057128906,-0.010652542114257812,-0.0021305084228515625,104
2021-01-19 12:48:31.153,-5.7678070068359375,-5.06508731842041,6.032374382019043,-0.003195762634277344,-0.014913558959960938,0.007456779479980469,104
2021-01-19 12:48:31.253,-5.760624885559082,-5.0195960998535165,6.010826110839844,-0.009587287902832031,-0.010652542114257812,0.0,104
2021-01-19 12:48:31.353,-5.75344181060791,-5.108184814453125,6.009629249572754,-0.012783050537109377,0.003195762634277344,-0.003195762634277344,104
2021-01-19 12:48:31.453,-5.693584442138673,-5.01361083984375,6.031177520751952,-0.009587287902832031,-0.006391525268554688,0.009587287902832031,104
2021-01-19 12:48:31.553,-5.761821746826173,-5.043539047241211,6.034769058227539,0.0021305084228515625,-0.003195762634277344,-0.0021305084228515625,104
