TIMESTAMP,ACCEL_X,ACCEL_Y,ACCEL_Z,GYRO_X,GYRO_Y,GYRO_Z,ACTIVITY_ID
2020-12-22 14:25:24.698,-0.7853212356567383,2.48166561126709,9.520833015441896,-0.0628519058227539,0.003195762634277344,0.0,104
2020-12-22 14:25:24.798,-0.7422246932983398,2.535536766052246,9.534001350402832,-0.12890052795410156,0.012783050537109377,0.0021305084228515625,104
2020-12-22 14:25:24.898,-1.0594663619995115,2.1751985549926762,9.74469757080078,-0.030893325805664062,0.020239830017089844,0.05326461791992188,104
2020-12-22 14:25:24.998,-0.7470130920410156,2.5642681121826167,9.481327056884766,-0.6764631271362305,0.09374523162841797,0.021305084228515625,104
2020-12-22 14:25:25.098,-0.6572275161743164,2.0123872756958012,9.367599487304688,-2.0656099319458012,0.09907245635986328,-0.0980072021484375,104
2020-12-22 14:25:25.198,-1.3120622634887695,-2.2039289474487305,10.084684371948242,-0.8554325103759766,-0.03621959686279297,0.04793834686279297,104
2020-12-22 14:25:25.298,-0.8906698226928711,-1.1217174530029297,9.719557762145996,-0.2375602722167969,-0.026632308959960938,0.07989692687988281,104
2020-12-22 14:25:25.398,-0.9182043075561525,-1.3970584869384766,9.66688346862793,-0.08841896057128906,0.005326271057128906,0.0170440673828125,104
2020-12-22 14:25:25.498,-0.9349641799926758,-1.5670518875122068,9.623786926269533,-0.04154586791992188,0.0,0.040480613708496094,104
2020-12-22 14:25:25.598,-0.9349641799926758,-1.558671951293945,9.563929557800293,-0.04154586791992188,0.007456779479980469,0.05326461791992188,104
2020-12-22 14:25:25.698,-0.7853212356567383,-1.5610666275024414,9.670475006103516,-0.0287628173828125,0.010652542114257812,0.00852203369140625,104
2020-12-22 14:25:25.798,-0.9648923873901368,-1.6053609848022459,9.605829238891602,-0.030893325805664062,0.005326271057128906,-0.012783050537109377,104
2020-12-22 14:25:25.898,-0.946934700012207,-1.6113462448120115,9.592660903930664,-0.06604766845703125,0.006391525268554688,-0.03835010528564453,104
2020-12-22 14:25:25.998,-0.9648923873901368,-1.7250747680664062,9.611815452575684,-0.045806884765625,0.0010652542114257812,-0.02237033843994141,104
2020-12-22 14:25:26.098,-0.9337663650512696,-1.7789459228515625,9.580689430236816,-0.03515434265136719,0.0,-0.01597881317138672,104
2020-12-22 14:25:26.198,-0.9158096313476562,-1.795705795288086,9.572309494018556,-0.034089088439941406,0.0010652542114257812,-0.019174575805664062,104
2020-12-22 14:25:26.298,-0.9624977111816406,-1.801691055297852,9.587872505187988,-0.010652542114257812,0.0010652542114257812,0.0,104
2020-12-22 14:25:26.398,-0.9373579025268556,-1.7873258590698242,9.559141159057617,-0.019174575805664062,0.0,-0.006391525268554688,104
2020-12-22 14:25:26.498,-0.9361610412597656,-1.822042465209961,9.579492568969727,-0.021305084228515625,-0.0021305084228515625,-0.007456779479980469,104
2020-12-22 14:25:26.598,-0.9397525787353516,-1.768171310424805,9.592660903930664,-0.020239830017089844,0.006391525268554688,-0.01810932159423828,104
2020-12-22 14:25:26.698,-0.9577093124389648,-1.905841827392578,9.571112632751463,-0.0021305084228515625,0.0021305084228515625,-0.0021305084228515625,104
2020-12-22 14:25:26.798,-0.924189567565918,-1.8052825927734373,9.59505558013916,0.006391525268554688,0.005326271057128906,-0.00852203369140625,104
2020-12-22 14:25:26.898,-0.9481325149536132,-1.8232393264770508,9.680051803588867,-0.019174575805664062,0.010652542114257812,-0.02450180053710937,104
2020-12-22 14:25:26.998,-0.9577093124389648,-1.860350608825684,9.585478782653807,-0.02556705474853516,0.0,-0.020239830017089844,104
2020-12-22 14:25:27.098,-0.9493293762207032,-1.9716844558715818,9.563929557800293,0.013848304748535156,-0.0021305084228515625,0.012783050537109377,104
2020-12-22 14:25:27.198,-0.926584243774414,-1.8807020187377932,9.611815452575684,0.0170440673828125,-0.0021305084228515625,0.0170440673828125,104
2020-12-22 14:25:27.298,-0.9529209136962892,-1.8914766311645508,9.586675643920898,0.011717796325683594,0.0021305084228515625,0.007456779479980469,104
2020-12-22 14:25:27.398,-0.9804553985595704,-1.7693681716918943,9.550761222839355,-0.004261016845703125,0.0,0.004261016845703125,104
2020-12-22 14:25:27.498,-1.0163688659667969,-1.8388023376464844,9.535198211669922,0.019174575805664062,0.0,0.021305084228515625,104
2020-12-22 14:25:27.598,-0.9601039886474608,-1.7538061141967771,9.585478782653807,-0.02982807159423828,0.010652542114257812,-0.030893325805664062,104
2020-12-22 14:25:27.698,-0.9660892486572266,-1.8292255401611328,9.536396026611328,-0.03515434265136719,0.009587287902832031,-0.034089088439941406,104
2020-12-22 14:25:27.798,-0.9660892486572266,-1.9046449661254885,9.537592887878418,-0.026632308959960938,0.003195762634277344,-0.020239830017089844,104
2020-12-22 14:25:27.898,-0.946934700012207,-1.9034481048583984,9.52681827545166,-0.009587287902832031,0.0021305084228515625,0.0,104
2020-12-22 14:25:27.998,-0.9648923873901368,-1.9645023345947263,9.523226737976074,-0.0010652542114257812,0.006391525268554688,0.0,104
2020-12-22 14:25:28.098,-0.9397525787353516,-1.921404838562012,9.57590103149414,-0.004261016845703125,0.0021305084228515625,-0.006391525268554688,104
2020-12-22 14:25:28.198,-0.917006492614746,-1.909433364868164,9.549564361572266,-0.0170440673828125,0.0010652542114257812,-0.01810932159423828,104
2020-12-22 14:25:28.298,-0.9648923873901368,-1.9513330459594729,9.487313270568848,-0.0010652542114257812,-0.0021305084228515625,-0.0010652542114257812,104
2020-12-22 14:25:28.398,-0.9361610412597656,-1.9226016998291016,9.550761222839355,0.0010652542114257812,-0.004261016845703125,0.004261016845703125,104
2020-12-22 14:25:28.498,-0.9541177749633788,-1.980064392089844,9.560338020324707,0.0010652542114257812,-0.0021305084228515625,0.003195762634277344,104
2020-12-22 14:25:28.598,-0.921794891357422,-1.9249963760375977,9.57709789276123,-0.013848304748535156,0.003195762634277344,-0.00852203369140625,104
2020-12-22 14:25:28.698,-0.9445409774780272,-1.9082365036010744,9.535198211669922,-0.020239830017089844,0.0,-0.003195762634277344,104
2020-12-22 14:25:28.798,-1.0055952072143557,-2.0890045166015625,9.457385063171387,0.00852203369140625,0.0021305084228515625,0.004261016845703125,104
2020-12-22 14:25:28.898,-0.8834867477416992,-1.9321794509887693,9.478933334350586,-0.0170440673828125,0.0010652542114257812,-0.006391525268554688,104
2020-12-22 14:25:28.998,-0.917006492614746,-1.9920358657836916,9.559141159057617,-0.0010652542114257812,0.0010652542114257812,0.009587287902832031,104
2020-12-22 14:25:29.098,-0.927781105041504,-1.9465446472167969,9.519636154174805,0.01597881317138672,-0.006391525268554688,0.02556705474853516,104
2020-12-22 14:25:29.198,-0.8619384765625,-1.9764728546142576,9.562732696533203,-0.04687213897705078,-0.005326271057128906,-0.02769756317138672,104
2020-12-22 14:25:29.298,-0.9385547637939452,-2.0746383666992188,9.481327056884766,-0.03728485107421875,-0.013848304748535156,0.033023834228515625,104
2020-12-22 14:25:29.398,-1.0211572647094729,-1.804085731506348,9.59625244140625,0.2024059295654297,0.042611122131347656,0.009587287902832031,104
2020-12-22 14:25:29.498,-1.0091867446899414,-1.6197261810302734,9.652518272399902,0.3792448043823242,0.05006885528564453,-0.030893325805664062,104
2020-12-22 14:25:29.598,-1.2198820114135742,-0.8344039916992188,9.918282508850098,0.6796588897705078,0.031958580017089844,0.06391716003417969,104
2020-12-22 14:25:29.698,-1.0654516220092771,-0.4561090469360352,9.59744930267334,0.4772529602050781,0.02556705474853516,0.0926799774169922,104
2020-12-22 14:25:29.798,-1.0331287384033203,0.0682363510131836,9.579492568969727,0.5070810317993164,0.009587287902832031,0.08841896057128906,104
2020-12-22 14:25:29.898,-1.0762262344360352,0.8439817428588867,9.59505558013916,0.14807605743408206,0.006391525268554688,0.05539512634277344,104
2020-12-22 14:25:29.998,-1.006792068481445,0.7709560394287109,9.64413833618164,0.2716503143310547,-0.02769756317138672,0.02556705474853516,104
2020-12-22 14:25:30.098,-0.986440658569336,0.8332071304321289,9.720754623413086,0.18109989166259768,-0.03515434265136719,0.005326271057128906,104
2020-12-22 14:25:30.198,-1.0762262344360352,0.6033563613891602,9.8069486618042,-0.15659809112548828,-0.01597881317138672,-0.02237033843994141,104
2020-12-22 14:25:30.298,-1.103759765625,0.39864635467529297,9.872791290283203,0.09694194793701172,-0.02556705474853516,-0.013848304748535156,104
2020-12-22 14:25:30.398,-1.054677963256836,0.6344823837280273,9.747092247009276,0.056460380554199226,-0.02237033843994141,-0.01810932159423828,104
2020-12-22 14:25:30.498,-1.0702400207519531,0.5530767440795898,9.846454620361328,-0.6018924713134766,0.030893325805664062,-0.10652923583984376,104
2020-12-22 14:25:30.598,-1.0834083557128906,0.6201162338256836,9.777020454406738,-0.6018924713134766,0.030893325805664062,-0.10652923583984376,104
2020-12-22 14:25:30.698,-0.98284912109375,0.04309654235839844,9.808145523071287,-0.12037849426269533,-0.019174575805664062,-0.0809621810913086,104
2020-12-22 14:25:30.798,-0.8918666839599609,-0.5506830215454102,9.828496932983398,-0.12037849426269533,-0.019174575805664062,-0.0809621810913086,104
2020-12-22 14:25:30.898,-0.8918666839599609,-0.5506830215454102,9.828496932983398,-0.02982807159423828,-0.014913558959960938,-0.05006885528564453,104
2020-12-22 14:25:30.998,-0.8918666839599609,-0.5506830215454102,9.828496932983398,-0.02982807159423828,-0.014913558959960938,-0.05006885528564453,104
2020-12-22 14:25:31.098,-0.9445409774780272,-0.8511638641357422,9.57709789276123,-0.02982807159423828,-0.014913558959960938,-0.05006885528564453,104
2020-12-22 14:25:31.198,-0.9445409774780272,-0.8511638641357422,9.57709789276123,-0.02982807159423828,-0.014913558959960938,-0.05006885528564453,104
2020-12-22 14:25:31.298,-0.9445409774780272,-0.8511638641357422,9.57709789276123,-0.00852203369140625,-0.011717796325683594,-0.014913558959960938,104
2020-12-22 14:25:31.398,-0.9026412963867188,-0.6356792449951172,9.731529235839844,-0.0170440673828125,-0.005326271057128906,-0.0010652542114257812,104
2020-12-22 14:25:31.498,-0.8930635452270508,-0.6153278350830078,9.846454620361328,-0.026632308959960938,-0.003195762634277344,-0.0010652542114257812,104
2020-12-22 14:25:31.598,-0.9194011688232422,-0.5758228302001953,9.727937698364258,-0.023435592651367188,0.0021305084228515625,-0.004261016845703125,104
2020-12-22 14:25:31.698,-0.9194011688232422,-0.6308908462524414,9.678854942321776,-0.07883167266845703,-0.003195762634277344,-0.004261016845703125,104
2020-12-22 14:25:31.798,-0.894261360168457,-0.7362394332885742,9.674066543579102,-0.2013406753540039,-0.02237033843994141,-0.026632308959960938,104
2020-12-22 14:25:31.898,-0.8751068115234375,-0.8930635452270508,9.721952438354492,-0.07883167266845703,-0.004261016845703125,-0.02982807159423828,104
2020-12-22 14:25:31.998,-0.7841243743896484,-1.0606632232666016,9.86441135406494,-0.10013771057128906,0.09054946899414062,-0.05326461791992188,104
2020-12-22 14:25:32.098,-1.201925277709961,-1.2138967514038086,9.413090705871582,-0.11824703216552734,0.02237033843994141,-0.034089088439941406,104
2020-12-22 14:25:32.198,-0.9409494400024414,-1.3012876510620115,9.663291931152344,0.012783050537109377,-0.004261016845703125,-0.0010652542114257812,104
2020-12-22 14:25:32.298,-0.9445409774780272,-1.322835922241211,9.69322109222412,-0.03621959686279297,-0.006391525268554688,0.012783050537109377,104
2020-12-22 14:25:32.398,-1.1779823303222656,-1.2797393798828125,9.492101669311523,-0.11824703216552734,-0.11398601531982422,0.020239830017089844,104
2020-12-22 14:25:32.498,-0.8332071304321289,-1.2953023910522459,9.698009490966797,-0.15766334533691406,-0.08522319793701172,0.010652542114257812,104
2020-12-22 14:25:32.598,-0.7374362945556641,-1.5251522064208984,9.726740837097168,-0.04793834686279297,-0.02982807159423828,0.021305084228515625,104
2020-12-22 14:25:32.698,-0.6668052673339844,-1.67120361328125,9.659700393676758,-0.09694194793701172,-0.0170440673828125,-0.01810932159423828,104
2020-12-22 14:25:32.798,-0.6524391174316406,-1.8328170776367188,9.607027053833008,-0.0628519058227539,0.00852203369140625,-0.00852203369140625,104
2020-12-22 14:25:32.898,-0.735041618347168,-1.7573966979980469,9.618998527526855,-0.09587669372558594,0.0170440673828125,-0.07350540161132812,104
2020-12-22 14:25:32.998,-0.7541961669921875,-1.9441509246826167,9.529212951660156,-0.11931324005126953,0.04367637634277344,-0.15127182006835938,104
2020-12-22 14:25:33.098,-0.7374362945556641,-1.9585161209106443,9.599843978881836,0.05113410949707031,0.07244014739990234,-0.15233707427978516,104
2020-12-22 14:25:33.198,-0.7506046295166016,-1.697540283203125,9.68484115600586,-0.1043987274169922,0.009587287902832031,-0.1320962905883789,104
2020-12-22 14:25:33.298,-0.7003250122070312,-2.111749649047852,9.480130195617676,0.019174575805664062,0.013848304748535156,-0.07563591003417969,104
2020-12-22 14:25:33.398,-0.6668052673339844,-1.980064392089844,9.57470417022705,-0.058590888977050774,-0.004261016845703125,-0.023435592651367188,104
2020-12-22 14:25:33.498,-0.7709560394287109,-2.030344009399414,9.499284744262695,-0.03515434265136719,-0.02450180053710937,0.026632308959960938,104
2020-12-22 14:25:33.598,-0.7003250122070312,-1.9489393234252932,9.465764999389648,-0.12250900268554688,-0.02556705474853516,-0.014913558959960938,104
2020-12-22 14:25:33.698,-0.7099018096923828,-2.158437728881836,9.45499038696289,-0.11185550689697266,-0.01810932159423828,0.0,104
2020-12-22 14:25:33.798,-0.6763820648193359,-2.2601947784423833,9.517241477966307,-0.06391716003417969,-0.009587287902832031,0.0,104
2020-12-22 14:25:33.898,-0.6703968048095703,-2.2458295822143555,9.498086929321287,-0.0809621810913086,-0.005326271057128906,-0.011717796325683594,104
2020-12-22 14:25:33.998,-0.6524391174316406,-2.3858938217163086,9.433442115783693,-0.09054946899414062,0.0,-0.013848304748535156,104
2020-12-22 14:25:34.098,-0.6799736022949219,-2.499622344970703,9.316122055053713,-0.030893325805664062,0.005326271057128906,-0.007456779479980469,104
2020-12-22 14:25:34.198,-0.6057510375976562,-2.6552505493164062,9.35562801361084,-0.0170440673828125,0.0021305084228515625,0.0021305084228515625,104
2020-12-22 14:25:34.298,-0.6871566772460938,-2.4529342651367188,9.451398849487305,0.0010652542114257812,0.003195762634277344,-0.004261016845703125,104
2020-12-22 14:25:34.398,-0.6835651397705078,-2.625321388244629,9.329291343688963,0.034089088439941406,0.005326271057128906,0.0,104
2020-12-22 14:25:34.498,-0.6536369323730469,-2.468496322631836,9.487313270568848,0.06498241424560547,0.014913558959960938,-0.010652542114257812,104
2020-12-22 14:25:34.598,-0.6931419372558594,-2.2470264434814453,9.449005126953123,0.322784423828125,0.02237033843994141,0.04474163055419922,104
2020-12-22 14:25:34.698,-0.6991281509399414,-2.0662584304809566,9.511256217956543,-0.031958580017089844,-0.0170440673828125,0.004261016845703125,104
2020-12-22 14:25:34.798,-0.6835651397705078,-2.2111120223999023,9.52562141418457,0.08735370635986328,-0.004261016845703125,0.01810932159423828,104
2020-12-22 14:25:34.898,-0.7972927093505859,-2.439764976501465,9.368796348571776,0.3334379196166992,0.05539512634277344,-0.02450180053710937,104
2020-12-22 14:25:34.998,-0.578216552734375,-2.503213882446289,9.481327056884766,0.578455924987793,0.16298961639404294,0.04367637634277344,104
2020-12-22 14:25:35.098,-0.8703184127807617,-1.5706434249877932,9.48611545562744,0.5528888702392578,0.07776641845703125,0.04367637634277344,104
2020-12-22 14:25:35.198,-0.8415870666503906,-1.1528425216674805,9.683643341064453,0.014913558959960938,0.023435592651367188,-0.02982807159423828,104
2020-12-22 14:25:35.298,-0.8427839279174805,-1.300090789794922,9.591464042663574,-0.020239830017089844,0.0,-0.010652542114257812,104
2020-12-22 14:25:35.398,-0.8739099502563477,-1.3300189971923828,9.548367500305176,-0.02769756317138672,0.0021305084228515625,0.0,104
2020-12-22 14:25:35.498,-0.8834867477416992,-1.2426280975341797,9.705191612243652,-0.040480613708496094,0.00852203369140625,-0.01810932159423828,104
2020-12-22 14:25:35.598,-0.9122180938720704,-1.3743133544921875,9.623786926269533,-0.04687213897705078,-0.007456779479980469,-0.00852203369140625,104
2020-12-22 14:25:35.698,-0.927781105041504,-1.3982563018798828,9.70638942718506,-0.045806884765625,-0.013848304748535156,-0.010652542114257812,104
2020-12-22 14:25:35.798,-0.9050350189208984,-1.5071954727172852,9.64533519744873,-0.07244014739990234,-0.01810932159423828,-0.0010652542114257812,104
2020-12-22 14:25:35.898,-0.8607416152954102,-1.4485359191894531,9.68484115600586,-0.02769756317138672,0.0021305084228515625,0.0,104
2020-12-22 14:25:35.998,-0.8643331527709961,-1.6185293197631836,9.602238655090332,-0.06391716003417969,-0.012783050537109377,-0.019174575805664062,104
2020-12-22 14:25:36.098,-0.8966550827026367,-1.6652173995971682,9.61540699005127,-0.11185550689697266,-0.0287628173828125,0.004261016845703125,104
2020-12-22 14:25:36.198,-0.8080673217773438,-1.7023286819458008,9.648926734924316,-0.14701080322265625,-0.009587287902832031,0.0010652542114257812,104
2020-12-22 14:25:36.298,-1.0032005310058594,-1.9441509246826167,9.459778785705566,-0.0745706558227539,-0.00852203369140625,0.003195762634277344,104
2020-12-22 14:25:36.398,-0.6703968048095703,-1.762186050415039,9.556747436523438,-0.07350540161132812,0.0,0.0,104
2020-12-22 14:25:36.498,-0.8140525817871094,-1.9249963760375977,9.54597282409668,-0.0010652542114257812,0.00852203369140625,-0.0021305084228515625,104
2020-12-22 14:25:36.598,-0.8547554016113281,-1.980064392089844,9.61660385131836,0.009587287902832031,0.011717796325683594,0.01597881317138672,104
2020-12-22 14:25:36.698,-0.8176441192626953,-1.9585161209106443,9.548367500305176,-0.05965614318847656,0.0,-0.05006885528564453,104
2020-12-22 14:25:36.798,-0.7972927093505859,-1.890279769897461,9.585478782653807,-0.05965614318847656,0.0,-0.05006885528564453,104
2020-12-22 14:25:36.898,-0.7972927093505859,-1.890279769897461,9.585478782653807,-0.05965614318847656,0.0,-0.05006885528564453,104
2020-12-22 14:25:36.998,-0.7972927093505859,-1.890279769897461,9.585478782653807,-0.05965614318847656,0.0,-0.05006885528564453,104
2020-12-22 14:25:37.098,-0.7972927093505859,-1.890279769897461,9.585478782653807,-0.05965614318847656,0.0,-0.05006885528564453,104
2020-12-22 14:25:37.198,-0.7972927093505859,-1.890279769897461,9.585478782653807,-0.05965614318847656,0.0,-0.05006885528564453,104
2020-12-22 14:25:37.298,-0.7972927093505859,-1.890279769897461,9.585478782653807,-0.05965614318847656,0.0,-0.05006885528564453,104
2020-12-22 14:25:37.398,-0.8068704605102539,-2.0902013778686523,9.445413589477539,-0.06711292266845703,-0.014913558959960938,-0.007456779479980469,104
2020-12-22 14:25:37.498,-0.7817306518554688,-2.1883668899536133,9.522029876708984,-0.04687213897705078,-0.00852203369140625,0.005326271057128906,104
2020-12-22 14:25:37.598,-0.7470130920410156,-2.1368894577026367,9.54477596282959,0.023435592651367188,-0.013848304748535156,0.0287628173828125,104
2020-12-22 14:25:37.698,-0.773350715637207,-2.1344957351684566,9.492101669311523,-0.014913558959960938,-0.0021305084228515625,-0.010652542114257812,104
2020-12-22 14:25:37.798,-0.7601814270019531,-2.2578001022338867,9.452595710754396,-0.04367637634277344,-0.01597881317138672,-0.02237033843994141,104
2020-12-22 14:25:37.898,-0.927781105041504,-2.48286247253418,9.247885704040527,-0.019174575805664062,0.00852203369140625,-0.0170440673828125,104
2020-12-22 14:25:37.998,-0.7685613632202148,-2.1991405487060547,9.411893844604492,-0.006391525268554688,0.0,0.01810932159423828,104
2020-12-22 14:25:38.098,-0.7434215545654297,-2.2111120223999023,9.483721733093262,-0.04154586791992188,-0.00852203369140625,0.005326271057128906,104
2020-12-22 14:25:38.198,-0.7075080871582031,-2.377513885498047,9.480130195617676,-0.0021305084228515625,-0.004261016845703125,-0.007456779479980469,104
2020-12-22 14:25:38.298,-0.6955366134643555,-2.379908561706543,9.634560585021973,-0.030893325805664062,-0.006391525268554688,-0.012783050537109377,104
2020-12-22 14:25:38.398,-0.7194786071777344,-2.3092775344848637,9.603435516357422,-0.011717796325683594,0.0010652542114257812,0.005326271057128906,104
2020-12-22 14:25:38.498,-0.7326478958129883,-2.3092775344848637,9.500481605529783,-0.034089088439941406,-0.0010652542114257812,-0.0010652542114257812,104
2020-12-22 14:25:38.598,-0.7242679595947266,-2.351177215576172,9.42745590209961,-0.03621959686279297,0.0010652542114257812,-0.011717796325683594,104
2020-12-22 14:25:38.698,-0.7170848846435547,-2.397865295410156,9.480130195617676,-0.023435592651367188,0.0,-0.006391525268554688,104
2020-12-22 14:25:38.798,-0.6967334747314453,-2.4206113815307617,9.466961860656738,-0.005326271057128906,0.0,-0.0021305084228515625,104
2020-12-22 14:25:38.898,-0.7769412994384766,-2.566661834716797,9.537592887878418,0.01597881317138672,0.0,-0.020239830017089844,104
2020-12-22 14:25:38.998,-0.6069478988647461,-2.425399780273437,9.794977188110352,0.007456779479980469,0.00852203369140625,-0.004261016845703125,104
2020-12-22 14:25:39.098,-0.6859588623046875,-2.239843368530273,9.55435276031494,-0.033023834228515625,-0.0010652542114257812,0.006391525268554688,104
2020-12-22 14:25:39.198,-0.7458162307739258,-2.529550552368164,9.304150581359863,-0.004261016845703125,0.0,-0.006391525268554688,104
2020-12-22 14:25:39.298,-0.6943387985229492,-2.4888477325439453,9.431047439575195,0.007456779479980469,0.0,0.003195762634277344,104
2020-12-22 14:25:39.398,-0.6859588623046875,-2.5175790786743164,9.342459678649902,0.01597881317138672,0.005326271057128906,0.0010652542114257812,104
2020-12-22 14:25:39.498,-0.6775789260864258,-2.502017021179199,9.390344619750977,-0.010652542114257812,0.0,0.004261016845703125,104
2020-12-22 14:25:39.598,-0.67279052734375,-2.419414520263672,9.443018913269043,0.013848304748535156,0.006391525268554688,0.010652542114257812,104
2020-12-22 14:25:39.698,-0.7685613632202148,-2.48166561126709,9.437033653259276,-0.003195762634277344,0.0010652542114257812,-0.004261016845703125,104
2020-12-22 14:25:39.798,-0.7182817459106445,-2.53433895111084,9.42506217956543,-0.03515434265136719,0.0,-0.02237033843994141,104
2020-12-22 14:25:39.898,-0.7122964859008789,-2.467299461364746,9.445413589477539,0.034089088439941406,0.007456779479980469,-0.02237033843994141,104
2020-12-22 14:25:39.998,-0.6548337936401367,-2.448145866394043,9.517241477966307,0.01597881317138672,-0.0021305084228515625,0.011717796325683594,104
2020-12-22 14:25:40.098,-0.6572275161743164,-2.468496322631836,9.445413589477539,0.003195762634277344,-0.004261016845703125,0.0021305084228515625,104
2020-12-22 14:25:40.198,-0.6979303359985352,-2.497227668762207,9.411893844604492,0.03621959686279297,0.007456779479980469,0.0,104
2020-12-22 14:25:40.298,-0.7805328369140625,-2.7689781188964844,10.170878410339355,0.05326461791992188,0.011717796325683594,-0.004261016845703125,104
2020-12-22 14:25:40.398,-0.6380739212036133,-1.6221208572387695,9.662095069885254,-0.1619243621826172,-0.0021305084228515625,0.011717796325683594,104
2020-12-22 14:25:40.498,-0.7697591781616211,-2.600181579589844,9.219154357910156,-0.00852203369140625,0.003195762634277344,-0.012783050537109377,104
2020-12-22 14:25:40.598,-0.7266616821289062,-2.558281898498535,9.387950897216797,0.02237033843994141,0.003195762634277344,-0.0010652542114257812,104
2020-12-22 14:25:40.698,-0.6847620010375977,-2.3523740768432617,9.49569320678711,-0.021305084228515625,0.0,0.003195762634277344,104
2020-12-22 14:25:40.798,-0.7398300170898438,-2.7689781188964844,9.159296989440918,0.04900360107421875,0.006391525268554688,0.010652542114257812,104
2020-12-22 14:25:40.898,-0.705113410949707,-2.382303237915039,9.399922370910645,-0.011717796325683594,0.0,0.009587287902832031,104
2020-12-22 14:25:40.998,-0.6751852035522461,-2.4792709350585938,9.433442115783693,-0.031958580017089844,0.0021305084228515625,-0.02450180053710937,104
2020-12-22 14:25:41.098,-0.7075080871582031,-2.535536766052246,9.293376922607422,-0.006391525268554688,0.003195762634277344,0.004261016845703125,104
2020-12-22 14:25:41.198,-0.6488475799560547,-2.5199737548828125,9.469355583190918,0.004261016845703125,0.003195762634277344,-0.003195762634277344,104
2020-12-22 14:25:41.298,-0.6967334747314453,-2.48166561126709,9.443018913269043,-0.012783050537109377,0.0,-0.009587287902832031,104
2020-12-22 14:25:41.398,-0.7003250122070312,-2.493637084960937,9.401119232177734,-0.006391525268554688,-0.0010652542114257812,0.0010652542114257812,104
2020-12-22 14:25:41.498,-0.7362394332885742,-2.536733627319336,9.3855562210083,0.007456779479980469,-0.0010652542114257812,0.003195762634277344,104
2020-12-22 14:25:41.598,-0.6847620010375977,-2.48166561126709,9.408302307128906,0.004261016845703125,0.0,0.0010652542114257812,104
2020-12-22 14:25:41.698,-0.678776741027832,-2.4289913177490234,9.381964683532717,-0.006391525268554688,0.0,0.003195762634277344,104
2020-12-22 14:25:41.798,-0.8224325180053711,-2.6444759368896484,9.302953720092773,-0.009587287902832031,-0.003195762634277344,0.0,104
2020-12-22 14:25:41.898,-0.6668052673339844,-2.5965900421142583,9.411893844604492,0.009587287902832031,0.007456779479980469,-0.003195762634277344,104
2020-12-22 14:25:41.998,-0.67279052734375,-2.406245231628418,9.498086929321287,-0.011717796325683594,0.003195762634277344,-0.006391525268554688,104
2020-12-22 14:25:42.098,-0.7146902084350586,-2.510396957397461,9.38675308227539,0.004261016845703125,0.0010652542114257812,-0.0021305084228515625,104
2020-12-22 14:25:42.198,-0.6560306549072266,-2.536733627319336,9.393936157226562,0.013848304748535156,0.0021305084228515625,0.0,104
2020-12-22 14:25:42.298,-0.7170848846435547,-2.4493427276611333,9.4537935256958,-0.0010652542114257812,0.0010652542114257812,0.0010652542114257812,104
2020-12-22 14:25:42.398,-0.6919450759887695,-2.5139875411987305,9.421470642089844,0.0,0.0010652542114257812,-0.0010652542114257812,104
2020-12-22 14:25:42.498,-0.735041618347168,-2.480467796325684,9.414287567138672,-0.003195762634277344,0.0010652542114257812,-0.0010652542114257812,104
2020-12-22 14:25:42.598,-0.6907482147216797,-2.46370792388916,9.437033653259276,0.0,0.0,0.0,104
2020-12-22 14:25:42.698,-0.7027187347412109,-2.4792709350585938,9.381964683532717,-0.012783050537109377,0.0,-0.00852203369140625,104
2020-12-22 14:25:42.798,-0.7027187347412109,-2.4792709350585938,9.381964683532717,-0.012783050537109377,0.0,-0.00852203369140625,104
2020-12-22 14:25:42.898,-0.7027187347412109,-2.4792709350585938,9.381964683532717,-0.012783050537109377,0.0,-0.00852203369140625,104
2020-12-22 14:25:42.998,-0.7027187347412109,-2.4792709350585938,9.381964683532717,-0.012783050537109377,0.0,-0.00852203369140625,104
2020-12-22 14:25:43.098,-0.7027187347412109,-2.4792709350585938,9.381964683532717,-0.012783050537109377,0.0,-0.00852203369140625,104
2020-12-22 14:25:43.198,-0.7027187347412109,-2.4792709350585938,9.381964683532717,-0.012783050537109377,0.0,-0.00852203369140625,104
2020-12-22 14:25:43.298,-0.7206764221191406,-2.535536766052246,9.40590763092041,0.003195762634277344,0.003195762634277344,0.003195762634277344,104
2020-12-22 14:25:43.398,-0.6991281509399414,-2.468496322631836,9.468158721923828,0.011717796325683594,0.003195762634277344,0.0,104
2020-12-22 14:25:43.498,-0.7182817459106445,-2.470890998840332,9.423864364624023,0.007456779479980469,0.0010652542114257812,0.006391525268554688,104
2020-12-22 14:25:43.598,-0.7134933471679688,-2.48525619506836,9.414287567138672,-0.004261016845703125,0.0,-0.003195762634277344,104
2020-12-22 14:25:43.698,-0.7278594970703125,-2.4756793975830083,9.433442115783693,-0.0170440673828125,-0.0010652542114257812,-0.013848304748535156,104
2020-12-22 14:25:43.798,-0.682368278503418,-2.472087860107422,9.464567184448242,0.014913558959960938,0.003195762634277344,0.012783050537109377,104
2020-12-22 14:25:43.898,-0.7302532196044922,-2.4277944564819336,9.450201988220217,0.004261016845703125,0.0,-0.009587287902832031,104
2020-12-22 14:25:43.998,-0.7386331558227539,-2.493637084960937,9.422667503356934,-0.007456779479980469,0.0,0.005326271057128906,104
2020-12-22 14:25:44.098,-0.7110986709594727,-2.468496322631836,9.445413589477539,-0.011717796325683594,0.0,-0.0021305084228515625,104
2020-12-22 14:25:44.198,-0.7158880233764648,-2.510396957397461,9.481327056884766,-0.004261016845703125,0.0,0.0,104
2020-12-22 14:25:44.298,-0.6715936660766602,-2.478074073791504,9.478933334350586,0.006391525268554688,0.0021305084228515625,0.004261016845703125,104
2020-12-22 14:25:44.398,-0.6943387985229492,-2.497227668762207,9.414287567138672,-0.005326271057128906,0.0021305084228515625,-0.0021305084228515625,104
2020-12-22 14:25:44.498,-0.7182817459106445,-2.48286247253418,9.42625904083252,0.006391525268554688,0.0021305084228515625,0.003195762634277344,104
2020-12-22 14:25:44.598,-0.6919450759887695,-2.484059333801269,9.384359359741213,-0.006391525268554688,0.0,-0.006391525268554688,104
2020-12-22 14:25:44.698,-0.6560306549072266,-2.548705101013184,9.40351390838623,-0.007456779479980469,0.0021305084228515625,0.003195762634277344,104
2020-12-22 14:25:44.798,-0.8403902053833008,-2.340402603149414,9.512453079223633,-0.0170440673828125,0.01810932159423828,-0.013848304748535156,104
2020-12-22 14:25:44.898,-0.7099018096923828,-2.5139875411987305,9.368796348571776,-0.003195762634277344,0.00852203369140625,-0.02769756317138672,104
2020-12-22 14:25:44.998,-0.6835651397705078,-2.41462516784668,9.499284744262695,0.013848304748535156,0.0,0.003195762634277344,104
2020-12-22 14:25:45.098,-0.7386331558227539,-2.493637084960937,9.368796348571776,0.0,0.0,0.003195762634277344,104
2020-12-22 14:25:45.198,-0.705113410949707,-2.4301881790161133,9.433442115783693,0.009587287902832031,0.0010652542114257812,0.0,104
2020-12-22 14:25:45.298,-0.7099018096923828,-2.468496322631836,9.464567184448242,0.009587287902832031,0.0021305084228515625,0.0,104
2020-12-22 14:25:45.398,-0.7170848846435547,-2.4553279876708984,9.471750259399414,0.0,0.003195762634277344,-0.0021305084228515625,104
2020-12-22 14:25:45.498,-0.6656074523925781,-2.478074073791504,9.463370323181152,0.0,0.0021305084228515625,-0.006391525268554688,104
2020-12-22 14:25:45.598,-0.7015218734741211,-2.442159652709961,9.408302307128906,0.0,0.0,-0.006391525268554688,104
2020-12-22 14:25:45.698,-0.7158880233764648,-2.4517364501953125,9.465764999389648,0.009587287902832031,-0.003195762634277344,0.02237033843994141,104
2020-12-22 14:25:45.798,-0.7362394332885742,-2.4325828552246094,9.45499038696289,0.00852203369140625,0.0010652542114257812,-0.003195762634277344,104
2020-12-22 14:25:45.898,-0.7075080871582031,-2.474482536315918,9.438230514526367,-0.004261016845703125,0.006391525268554688,-0.010652542114257812,104
2020-12-22 14:25:45.998,-0.6991281509399414,-2.4529342651367188,9.45499038696289,-0.0021305084228515625,0.0021305084228515625,-0.003195762634277344,104
2020-12-22 14:25:46.098,-0.7326478958129883,-2.46370792388916,9.420273780822754,0.0,0.005326271057128906,0.0010652542114257812,104
2020-12-22 14:25:46.198,-0.7170848846435547,-2.4517364501953125,9.449005126953123,0.004261016845703125,0.0010652542114257812,0.0021305084228515625,104
2020-12-22 14:25:46.298,-0.7182817459106445,-2.4493427276611333,9.449005126953123,0.0,0.0010652542114257812,-0.0021305084228515625,104
2020-12-22 14:25:46.398,-0.7063102722167969,-2.4613142013549805,9.433442115783693,0.0,0.0010652542114257812,0.004261016845703125,104
2020-12-22 14:25:46.498,-0.7326478958129883,-2.470890998840332,9.462173461914062,-0.00852203369140625,0.0,-0.004261016845703125,104
2020-12-22 14:25:46.598,-0.6991281509399414,-2.48525619506836,9.43463897705078,0.007456779479980469,0.0,0.005326271057128906,104
2020-12-22 14:25:46.698,-0.7206764221191406,-2.511593818664551,9.40590763092041,0.007456779479980469,0.0010652542114257812,0.004261016845703125,104
2020-12-22 14:25:46.798,-0.6943387985229492,-2.499622344970703,9.379570960998537,-0.0010652542114257812,0.0,0.0,104
2020-12-22 14:25:46.898,-0.6943387985229492,-2.437371253967285,9.451398849487305,0.01597881317138672,0.0,0.00852203369140625,104
2020-12-22 14:25:46.998,-0.6991281509399414,-2.4289913177490234,9.471750259399414,0.007456779479980469,0.0,-0.006391525268554688,104
2020-12-22 14:25:47.098,-0.6620168685913086,-2.448145866394043,9.422667503356934,0.005326271057128906,0.0,0.0,104
2020-12-22 14:25:47.198,-0.7039165496826172,-2.437371253967285,9.446610450744627,-0.0010652542114257812,-0.0021305084228515625,0.003195762634277344,104
2020-12-22 14:25:47.298,-0.7302532196044922,-2.408639907836914,9.490904808044434,-0.0010652542114257812,0.003195762634277344,-0.006391525268554688,104
2020-12-22 14:25:47.398,-0.7134933471679688,-2.415822982788086,9.444215774536133,-0.0010652542114257812,0.006391525268554688,0.006391525268554688,104
2020-12-22 14:25:47.498,-0.7039165496826172,-2.438568115234375,9.488510131835938,0.011717796325683594,0.0021305084228515625,0.010652542114257812,104
2020-12-22 14:25:47.598,-0.8152503967285156,-2.1009759902954097,9.654911994934082,0.01597881317138672,0.003195762634277344,0.0,104
2020-12-22 14:25:47.698,-0.735041618347168,-2.434976577758789,9.428653717041016,-0.011717796325683594,0.0010652542114257812,0.00852203369140625,104
2020-12-22 14:25:47.798,-0.7398300170898438,-2.408639907836914,9.452595710754396,0.011717796325683594,0.0,0.006391525268554688,104
2020-12-22 14:25:47.898,-0.7577877044677734,-2.324840545654297,9.609420776367188,0.004261016845703125,0.0010652542114257812,0.006391525268554688,104
2020-12-22 14:25:47.998,-0.7206764221191406,-2.358360290527344,9.484918594360352,-0.012783050537109377,-0.004261016845703125,0.00852203369140625,104
2020-12-22 14:25:48.098,-0.6967334747314453,-2.426596641540528,9.422667503356934,-0.0287628173828125,-0.0021305084228515625,-0.004261016845703125,104
2020-12-22 14:25:48.198,-0.6668052673339844,-2.41462516784668,9.391542434692383,0.012783050537109377,0.007456779479980469,-0.003195762634277344,104
2020-12-22 14:25:48.298,-0.6907482147216797,-2.472087860107422,9.488510131835938,-0.003195762634277344,0.0,-0.007456779479980469,104
2020-12-22 14:25:48.398,-0.7194786071777344,-2.443356513977051,9.410696029663086,-0.006391525268554688,0.0010652542114257812,-0.006391525268554688,104
2020-12-22 14:25:48.498,-0.6835651397705078,-2.4301881790161133,9.421470642089844,0.0,0.0010652542114257812,0.0,104
2020-12-22 14:25:48.598,-0.6680021286010742,-2.4002599716186523,9.50287628173828,-0.012783050537109377,-0.0010652542114257812,-0.013848304748535156,104
2020-12-22 14:25:48.698,-0.6500453948974609,-2.5738449096679688,9.395133018493652,0.021305084228515625,0.0010652542114257812,0.011717796325683594,104
2020-12-22 14:25:48.798,-0.6500453948974609,-2.5738449096679688,9.395133018493652,0.009587287902832031,0.0021305084228515625,0.004261016845703125,104
2020-12-22 14:25:48.898,-0.7075080871582031,-2.541522026062012,9.431047439575195,0.009587287902832031,0.0021305084228515625,0.004261016845703125,104
2020-12-22 14:25:48.998,-0.7075080871582031,-2.541522026062012,9.431047439575195,0.009587287902832031,0.0021305084228515625,0.004261016845703125,104
2020-12-22 14:25:49.098,-0.7075080871582031,-2.541522026062012,9.431047439575195,0.009587287902832031,0.0021305084228515625,0.004261016845703125,104
2020-12-22 14:25:49.198,-0.7075080871582031,-2.541522026062012,9.431047439575195,0.009587287902832031,0.0021305084228515625,0.004261016845703125,104
2020-12-22 14:25:49.298,-0.7075080871582031,-2.541522026062012,9.431047439575195,0.009587287902832031,0.0021305084228515625,0.004261016845703125,104
2020-12-22 14:25:49.398,-0.7075080871582031,-2.541522026062012,9.431047439575195,0.009587287902832031,0.0021305084228515625,0.004261016845703125,104
2020-12-22 14:25:49.498,-0.6883535385131836,-2.5834217071533203,9.389147758483887,-0.01597881317138672,0.0,-0.006391525268554688,104
2020-12-22 14:25:49.598,-0.6931419372558594,-2.5822248458862305,9.40471076965332,-0.00852203369140625,0.003195762634277344,0.0,104
2020-12-22 14:25:49.698,-0.6763820648193359,-2.5786333084106445,9.411893844604492,0.0010652542114257812,0.0,0.010652542114257812,104
2020-12-22 14:25:49.798,-0.6991281509399414,-2.5187768936157227,9.391542434692383,0.005326271057128906,-0.0021305084228515625,0.009587287902832031,104
2020-12-22 14:25:49.898,-0.5961742401123047,-2.5906047821044917,9.367599487304688,-0.020239830017089844,-0.005326271057128906,-0.0021305084228515625,104
2020-12-22 14:25:49.998,-0.6895503997802734,-2.6732072830200195,9.316122055053713,-0.04367637634277344,0.0,-0.003195762634277344,104
2020-12-22 14:25:50.098,-0.6775789260864258,-2.6947555541992188,9.372387886047363,-0.013848304748535156,0.0010652542114257812,-0.0010652542114257812,104
2020-12-22 14:25:50.198,-0.6572275161743164,-2.719895362854004,9.352036476135254,-0.014913558959960938,0.003195762634277344,-0.007456779479980469,104
2020-12-22 14:25:50.298,-0.6739873886108398,-2.679192543029785,9.414287567138672,0.004261016845703125,0.0,0.0,104
2020-12-22 14:25:50.398,-0.678776741027832,-2.6552505493164062,9.435835838317873,0.009587287902832031,0.005326271057128906,0.003195762634277344,104
2020-12-22 14:25:50.498,-0.5566682815551758,-2.0698499679565434,9.332881927490234,0.04367637634277344,0.0021305084228515625,-0.019174575805664062,104
2020-12-22 14:25:50.598,-0.803278923034668,-3.000025749206543,9.003669738769531,-0.08735370635986328,0.0,0.007456779479980469,104
2020-12-22 14:25:50.698,-0.6356792449951172,-2.749823570251465,9.391542434692383,-0.003195762634277344,-0.0010652542114257812,0.0010652542114257812,104
2020-12-22 14:25:50.798,-0.6680021286010742,-2.559478759765625,9.457385063171387,0.033023834228515625,0.0,0.011717796325683594,104
2020-12-22 14:25:50.898,-0.6967334747314453,-2.729473114013672,9.30774211883545,-0.021305084228515625,-0.0010652542114257812,0.0,104
2020-12-22 14:25:50.998,-0.6691989898681641,-2.745035171508789,9.367599487304688,-0.012783050537109377,0.0010652542114257812,-0.004261016845703125,104
2020-12-22 14:25:51.098,-0.6632137298583984,-2.731866836547852,9.346051216125488,-0.012783050537109377,0.003195762634277344,-0.012783050537109377,104
2020-12-22 14:25:51.198,-0.6703968048095703,-2.7139101028442383,9.37597942352295,0.009587287902832031,0.005326271057128906,0.0021305084228515625,104
2020-12-22 14:25:51.298,-0.6895503997802734,-2.7139101028442383,9.380767822265623,0.003195762634277344,0.0010652542114257812,0.003195762634277344,104
2020-12-22 14:25:51.398,-0.6907482147216797,-2.660038948059082,9.420273780822754,0.004261016845703125,0.006391525268554688,-0.0010652542114257812,104
2020-12-22 14:25:51.498,-0.67279052734375,-2.666024208068848,9.380767822265623,-0.0010652542114257812,0.0,-0.004261016845703125,104
2020-12-22 14:25:51.598,-0.6524391174316406,-2.6947555541992188,9.384359359741213,0.0,0.0,-0.0010652542114257812,104
2020-12-22 14:25:51.698,-0.7146902084350586,-2.6552505493164062,9.440624237060547,0.003195762634277344,0.0010652542114257812,-0.0021305084228515625,104
2020-12-22 14:25:51.798,-0.731450080871582,-2.6732072830200195,9.366402626037598,0.005326271057128906,0.0021305084228515625,0.004261016845703125,104
2020-12-22 14:25:51.898,-0.7075080871582031,-2.6516590118408203,9.397527694702148,0.009587287902832031,0.0,0.0,104
2020-12-22 14:25:51.998,-0.6859588623046875,-2.630110740661621,9.369993209838867,0.005326271057128906,0.0,-0.0021305084228515625,104
2020-12-22 14:25:52.098,-0.6895503997802734,-2.679192543029785,9.361613273620604,0.0010652542114257812,0.0010652542114257812,0.0,104
2020-12-22 14:25:52.198,-0.5327253341674805,-2.504410743713379,9.536396026611328,0.02556705474853516,0.0,-0.014913558959960938,104
2020-12-22 14:25:52.298,-0.7434215545654297,-2.5151853561401367,9.253870964050293,0.0,0.0021305084228515625,-0.007456779479980469,104
2020-12-22 14:25:52.398,-0.7398300170898438,-2.784541130065918,9.268237113952637,-0.007456779479980469,-0.003195762634277344,0.0010652542114257812,104
2020-12-22 14:25:52.498,-0.6775789260864258,-2.65285587310791,9.468158721923828,0.01810932159423828,-0.0010652542114257812,-0.007456779479980469,104
2020-12-22 14:25:52.598,-0.6763820648193359,-2.5558881759643555,9.38675308227539,0.020239830017089844,0.0,0.005326271057128906,104
2020-12-22 14:25:52.698,-0.7134933471679688,-2.747429847717285,9.331685066223145,-0.009587287902832031,0.0021305084228515625,0.0,104
2020-12-22 14:25:52.798,-0.6763820648193359,-2.649264335632324,9.37597942352295,0.006391525268554688,0.0010652542114257812,-0.0010652542114257812,104
2020-12-22 14:25:52.898,-0.6512422561645508,-2.6552505493164062,9.417879104614258,0.006391525268554688,0.0,-0.003195762634277344,104
2020-12-22 14:25:52.998,-0.6572275161743164,-2.687572479248047,9.362811088562012,0.0,0.0,0.0010652542114257812,104
2020-12-22 14:25:53.098,-0.6632137298583984,-2.682784080505371,9.38675308227539,0.0010652542114257812,0.0010652542114257812,0.0021305084228515625,104
2020-12-22 14:25:53.198,-0.6799736022949219,-2.634899139404297,9.373584747314453,0.0010652542114257812,0.0,0.003195762634277344,104
2020-12-22 14:25:53.298,-0.6691989898681641,-2.626519203186035,9.40351390838623,0.004261016845703125,0.0021305084228515625,0.0,104
2020-12-22 14:25:53.398,-0.67279052734375,-2.6552505493164062,9.37597942352295,0.0,0.0010652542114257812,0.0021305084228515625,104
2020-12-22 14:25:53.498,-0.6751852035522461,-2.6037731170654297,9.398724555969238,0.006391525268554688,0.0,0.004261016845703125,104
2020-12-22 14:25:53.598,-0.6763820648193359,-2.63370132446289,9.402316093444824,0.003195762634277344,0.0010652542114257812,0.0,104
2020-12-22 14:25:53.698,-0.6763820648193359,-2.637292861938477,9.3855562210083,-0.009587287902832031,0.0021305084228515625,-0.003195762634277344,104
2020-12-22 14:25:53.798,-0.6608190536499023,-2.7091217041015625,9.39633083343506,-0.011717796325683594,0.0,0.0010652542114257812,104
2020-12-22 14:25:53.898,-0.67279052734375,-2.681587219238281,9.40471076965332,-0.00852203369140625,0.0010652542114257812,-0.009587287902832031,104
2020-12-22 14:25:53.998,-0.6572275161743164,-2.6648273468017583,9.365204811096193,0.0021305084228515625,0.003195762634277344,0.004261016845703125,104
2020-12-22 14:25:54.098,-0.6548337936401367,-2.666024208068848,9.368796348571776,0.005326271057128906,0.0010652542114257812,0.003195762634277344,104
2020-12-22 14:25:54.198,-0.6680021286010742,-2.688770294189453,9.3855562210083,-0.00852203369140625,0.0010652542114257812,-0.0021305084228515625,104
2020-12-22 14:25:54.298,-0.6739873886108398,-2.688770294189453,9.413090705871582,-0.004261016845703125,0.0010652542114257812,0.0,104
2020-12-22 14:25:54.398,-0.6620168685913086,-2.681587219238281,9.359219551086426,0.0,0.0010652542114257812,0.0021305084228515625,104
2020-12-22 14:25:54.498,-0.6799736022949219,-2.667222023010254,9.35443115234375,0.0021305084228515625,0.0010652542114257812,0.0,104
2020-12-22 14:25:54.598,-0.6799736022949219,-2.660038948059082,9.381964683532717,-0.007456779479980469,0.0,-0.0021305084228515625,104
2020-12-22 14:25:54.698,-0.6596221923828125,-2.667222023010254,9.378373146057127,0.0010652542114257812,0.0010652542114257812,-0.0010652542114257812,104
2020-12-22 14:25:54.798,-0.6596221923828125,-2.667222023010254,9.378373146057127,0.0010652542114257812,0.0010652542114257812,-0.0010652542114257812,104
2020-12-22 14:25:54.898,-0.6596221923828125,-2.667222023010254,9.378373146057127,0.0010652542114257812,0.0010652542114257812,-0.0010652542114257812,104
2020-12-22 14:25:54.998,-0.6596221923828125,-2.667222023010254,9.378373146057127,0.0010652542114257812,0.0010652542114257812,-0.0010652542114257812,104
2020-12-22 14:25:55.098,-0.6596221923828125,-2.667222023010254,9.378373146057127,0.0010652542114257812,0.0010652542114257812,-0.0010652542114257812,104
2020-12-22 14:25:55.198,-0.6596221923828125,-2.667222023010254,9.378373146057127,0.0010652542114257812,0.0010652542114257812,-0.0010652542114257812,104
2020-12-22 14:25:55.298,-0.6859588623046875,-2.681587219238281,9.390344619750977,-0.004261016845703125,0.0,-0.0010652542114257812,104
2020-12-22 14:25:55.398,-0.6596221923828125,-2.689967155456543,9.398724555969238,-0.0010652542114257812,0.0,0.0021305084228515625,104
2020-12-22 14:25:55.498,-0.67279052734375,-2.666024208068848,9.369993209838867,-0.0021305084228515625,0.0,-0.0010652542114257812,104
2020-12-22 14:25:55.598,-0.6991281509399414,-2.682784080505371,9.38316249847412,-0.004261016845703125,0.0,-0.003195762634277344,104
2020-12-22 14:25:55.698,-0.6907482147216797,-2.681587219238281,9.352036476135254,-0.005326271057128906,0.0,0.0010652542114257812,104
2020-12-22 14:25:55.798,-0.6680021286010742,-2.686375617980957,9.381964683532717,-0.01810932159423828,0.0021305084228515625,-0.005326271057128906,104
2020-12-22 14:25:55.898,-0.6847620010375977,-2.7091217041015625,9.3855562210083,0.0,0.0021305084228515625,0.0,104
2020-12-22 14:25:55.998,-0.6656074523925781,-2.705530166625977,9.341261863708496,-0.010652542114257812,0.0,-0.0021305084228515625,104
2020-12-22 14:25:56.098,-0.6668052673339844,-2.716303825378418,9.353233337402344,-0.003195762634277344,0.0,0.0,104
2020-12-22 14:25:56.198,-0.6691989898681641,-2.7067270278930664,9.391542434692383,0.006391525268554688,0.0,0.005326271057128906,104
2020-12-22 14:25:56.298,-0.6440591812133789,-2.667222023010254,9.384359359741213,-0.0010652542114257812,0.0010652542114257812,0.0,104
2020-12-22 14:25:56.398,-0.678776741027832,-2.727078437805176,9.37597942352295,0.0,0.0,-0.003195762634277344,104
2020-12-22 14:25:56.498,-0.6620168685913086,-2.7725696563720703,9.33527660369873,0.052199363708496094,-0.0010652542114257812,0.033023834228515625,104
2020-12-22 14:25:56.598,-0.6560306549072266,-2.60137939453125,9.429850578308104,0.05326461791992188,-0.010652542114257812,0.04793834686279297,104
2020-12-22 14:25:56.698,-0.678776741027832,-2.5846195220947266,9.428653717041016,0.06072139739990234,-0.007456779479980469,0.03941535949707031,104
2020-12-22 14:25:56.798,-0.6907482147216797,-2.4529342651367188,9.452595710754396,0.04687213897705078,-0.005326271057128906,0.03621959686279297,104
2020-12-22 14:25:56.898,-0.6751852035522461,-2.504410743713379,9.423864364624023,0.007456779479980469,0.0,0.0,104
2020-12-22 14:25:56.998,-0.6919450759887695,-2.528353691101074,9.399922370910645,-0.007456779479980469,0.006391525268554688,-0.009587287902832031,104
2020-12-22 14:25:57.098,-0.6775789260864258,-2.5247621536254883,9.417879104614258,-0.007456779479980469,0.0010652542114257812,-0.007456779479980469,104
2020-12-22 14:25:57.198,-0.6775789260864258,-2.5786333084106445,9.38316249847412,-0.0287628173828125,0.007456779479980469,-0.02982807159423828,104
2020-12-22 14:25:57.298,-0.6967334747314453,-2.6037731170654297,9.389147758483887,-0.010652542114257812,0.0021305084228515625,-0.013848304748535156,104
2020-12-22 14:25:57.398,-0.6811704635620117,-2.5570850372314453,9.428653717041016,-0.0010652542114257812,0.0010652542114257812,0.0010652542114257812,104
2020-12-22 14:25:57.498,-0.6620168685913086,-2.60257625579834,9.397527694702148,-0.0010652542114257812,0.0,0.0021305084228515625,104
2020-12-22 14:25:57.598,-0.6943387985229492,-2.5786333084106445,9.40351390838623,0.005326271057128906,0.0,0.012783050537109377,104
2020-12-22 14:25:57.698,-0.6751852035522461,-2.5702533721923833,9.373584747314453,-0.019174575805664062,0.0,-0.003195762634277344,104
2020-12-22 14:25:57.798,-0.7003250122070312,-2.5846195220947266,9.393936157226562,-0.0021305084228515625,0.0010652542114257812,0.019174575805664062,104
2020-12-22 14:25:57.898,-0.6883535385131836,-2.5678586959838867,9.433442115783693,-0.01597881317138672,0.0,-0.02769756317138672,104
2020-12-22 14:25:57.998,-0.6656074523925781,-2.7091217041015625,9.319713592529297,0.007456779479980469,0.0,0.0021305084228515625,104
2020-12-22 14:25:58.098,-0.6560306549072266,-2.566661834716797,9.399922370910645,0.0287628173828125,-0.0021305084228515625,0.021305084228515625,104
2020-12-22 14:25:58.198,-0.6943387985229492,-2.5510988235473637,9.402316093444824,-0.0170440673828125,0.0,-0.005326271057128906,104
2020-12-22 14:25:58.298,-0.682368278503418,-2.6947555541992188,9.366402626037598,-0.031958580017089844,0.0,-0.019174575805664062,104
2020-12-22 14:25:58.398,-0.6775789260864258,-2.6648273468017583,9.378373146057127,-0.012783050537109377,0.006391525268554688,-0.012783050537109377,104
2020-12-22 14:25:58.498,-0.6751852035522461,-2.676798820495605,9.352036476135254,-0.0021305084228515625,0.0,0.004261016845703125,104
2020-12-22 14:25:58.598,-0.6751852035522461,-2.657644271850586,9.390344619750977,0.009587287902832031,0.0,0.003195762634277344,104
2020-12-22 14:25:58.698,-0.6380739212036133,-2.625321388244629,9.419075965881348,0.005326271057128906,0.0,0.0021305084228515625,104
2020-12-22 14:25:58.798,-0.6632137298583984,-2.6720104217529297,9.323305130004883,-0.01597881317138672,0.0,-0.0021305084228515625,104
2020-12-22 14:25:58.898,-0.6500453948974609,-2.7653865814208984,9.364007949829102,-0.020239830017089844,0.0,-0.003195762634277344,104
2020-12-22 14:25:58.998,-0.6608190536499023,-2.697150230407715,9.40471076965332,-0.014913558959960938,0.0,-0.010652542114257812,104
2020-12-22 14:25:59.098,-0.6859588623046875,-2.715106964111328,9.324501991271973,-0.0021305084228515625,0.0010652542114257812,0.0,104
2020-12-22 14:25:59.198,-0.6775789260864258,-2.6708126068115234,9.33647346496582,0.01597881317138672,0.0010652542114257812,0.012783050537109377,104
2020-12-22 14:25:59.298,-0.7470130920410156,-2.688770294189453,9.299362182617188,0.0021305084228515625,0.0021305084228515625,0.004261016845703125,104
2020-12-22 14:25:59.398,-0.6739873886108398,-2.716303825378418,9.295770645141602,-0.014913558959960938,0.0,-0.012783050537109377,104
2020-12-22 14:25:59.498,-0.6177225112915039,-2.7725696563720703,9.359219551086426,-0.005326271057128906,0.0,0.0,104
2020-12-22 14:25:59.598,-0.6284961700439453,-2.707923889160156,9.416682243347168,-0.0021305084228515625,0.0,-0.003195762634277344,104
2020-12-22 14:25:59.698,-0.6524391174316406,-2.5570850372314453,9.507664680480957,0.02556705474853516,0.004261016845703125,0.009587287902832031,104
2020-12-22 14:25:59.798,-0.6739873886108398,-2.794117927551269,9.28380012512207,-0.010652542114257812,0.0,0.003195762634277344,104
2020-12-22 14:25:59.898,-0.6847620010375977,-2.6444759368896484,9.361613273620604,0.004261016845703125,0.0,0.0,104
2020-12-22 14:25:59.998,-0.6919450759887695,-2.634899139404297,9.417879104614258,0.009587287902832031,0.0,0.0010652542114257812,104
2020-12-22 14:26:00.098,-0.6895503997802734,-2.6396875381469727,9.371191024780273,0.0,0.0010652542114257812,-0.005326271057128906,104
2020-12-22 14:26:00.198,-0.6895503997802734,-2.649264335632324,9.401119232177734,0.0,-0.0010652542114257812,-0.003195762634277344,104
2020-12-22 14:26:00.298,-0.6919450759887695,-2.622927665710449,9.366402626037598,0.00852203369140625,0.0010652542114257812,0.0,104
2020-12-22 14:26:00.398,-0.6919450759887695,-2.649264335632324,9.358022689819336,0.004261016845703125,0.0,0.0021305084228515625,104
2020-12-22 14:26:00.498,-0.6811704635620117,-2.682784080505371,9.384359359741213,-0.004261016845703125,0.0010652542114257812,-0.0021305084228515625,104
2020-12-22 14:26:00.598,-0.6859588623046875,-2.6516590118408203,9.421470642089844,0.0,0.0,-0.0010652542114257812,104
2020-12-22 14:26:00.698,-0.6656074523925781,-2.656447410583496,9.373584747314453,-0.006391525268554688,0.0,-0.006391525268554688,104
2020-12-22 14:26:00.798,-0.6656074523925781,-2.656447410583496,9.373584747314453,-0.006391525268554688,0.0,-0.006391525268554688,104
2020-12-22 14:26:00.898,-0.6656074523925781,-2.656447410583496,9.373584747314453,-0.006391525268554688,0.0,-0.006391525268554688,104
2020-12-22 14:26:00.998,-0.6656074523925781,-2.656447410583496,9.373584747314453,-0.006391525268554688,0.0,-0.006391525268554688,104
2020-12-22 14:26:01.098,-0.6656074523925781,-2.656447410583496,9.373584747314453,-0.006391525268554688,0.0,-0.006391525268554688,104
2020-12-22 14:26:01.198,-0.6656074523925781,-2.656447410583496,9.373584747314453,-0.006391525268554688,0.0,-0.006391525268554688,104
2020-12-22 14:26:01.298,-0.6763820648193359,-2.693558692932129,9.369993209838867,0.0,0.0,0.0,104
2020-12-22 14:26:01.398,-0.6763820648193359,-2.688770294189453,9.366402626037598,-0.003195762634277344,-0.0010652542114257812,0.0,104
2020-12-22 14:26:01.498,-0.67279052734375,-2.7067270278930664,9.373584747314453,-0.004261016845703125,0.0010652542114257812,0.0010652542114257812,104
2020-12-22 14:26:01.598,-0.67279052734375,-2.707923889160156,9.367599487304688,-0.006391525268554688,0.0,0.003195762634277344,104
2020-12-22 14:26:01.698,-0.6739873886108398,-2.682784080505371,9.367599487304688,0.0,0.0,0.0,104
2020-12-22 14:26:01.798,-0.6548337936401367,-2.654052734375,9.361613273620604,0.0010652542114257812,0.0,0.0,104
2020-12-22 14:26:01.898,-0.678776741027832,-2.6480674743652344,9.33527660369873,0.004261016845703125,-0.0010652542114257812,0.0021305084228515625,104
2020-12-22 14:26:01.998,-0.6859588623046875,-2.675601959228516,9.387950897216797,-0.00852203369140625,0.0,-0.005326271057128906,104
2020-12-22 14:26:02.098,-0.6691989898681641,-2.679192543029785,9.390344619750977,0.0021305084228515625,0.0,0.0,104
2020-12-22 14:26:02.198,-0.682368278503418,-2.663630485534668,9.364007949829102,0.011717796325683594,0.0,0.003195762634277344,104
2020-12-22 14:26:02.298,-0.6536369323730469,-2.5510988235473637,9.35443115234375,0.005326271057128906,0.0,-0.007456779479980469,104
2020-12-22 14:26:02.398,-0.7158880233764648,-2.6947555541992188,9.317319869995117,-0.00852203369140625,0.0,-0.003195762634277344,104
2020-12-22 14:26:02.498,-0.6931419372558594,-2.6468706130981445,9.417879104614258,0.00852203369140625,0.0,0.003195762634277344,104
2020-12-22 14:26:02.598,-0.6871566772460938,-2.661235809326172,9.423864364624023,0.007456779479980469,0.0,0.003195762634277344,104
2020-12-22 14:26:02.698,-0.6763820648193359,-2.6983470916748047,9.381964683532717,0.0,0.0,0.0,104
2020-12-22 14:26:02.798,-0.6907482147216797,-2.686375617980957,9.391542434692383,0.0,-0.0021305084228515625,0.0021305084228515625,104
2020-12-22 14:26:02.898,-0.6608190536499023,-2.661235809326172,9.35562801361084,0.004261016845703125,0.0,0.003195762634277344,104
2020-12-22 14:26:02.998,-0.6979303359985352,-2.634899139404297,9.393936157226562,0.0,0.004261016845703125,-0.0021305084228515625,104
2020-12-22 14:26:03.098,-0.6799736022949219,-2.6839818954467773,9.362811088562012,-0.005326271057128906,0.0,-0.0021305084228515625,104
2020-12-22 14:26:03.198,-0.6943387985229492,-2.6624326705932617,9.346051216125488,0.0,0.0010652542114257812,0.0,104
2020-12-22 14:26:03.298,-0.6165256500244141,-2.62173080444336,9.459778785705566,0.010652542114257812,-0.0021305084228515625,0.003195762634277344,104
2020-12-22 14:26:03.398,-0.6751852035522461,-2.6516590118408203,9.369993209838867,-0.005326271057128906,0.0021305084228515625,0.0021305084228515625,104
2020-12-22 14:26:03.498,-0.6859588623046875,-2.675601959228516,9.32809352874756,-0.007456779479980469,0.0,-0.0021305084228515625,104
2020-12-22 14:26:03.598,-0.6680021286010742,-2.637292861938477,9.40590763092041,0.010652542114257812,0.0010652542114257812,0.0021305084228515625,104
2020-12-22 14:26:03.698,-0.6919450759887695,-2.6552505493164062,9.389147758483887,0.0021305084228515625,0.0010652542114257812,0.0,104
2020-12-22 14:26:03.798,-0.6715936660766602,-2.666024208068848,9.377176284790039,-0.003195762634277344,-0.0010652542114257812,-0.0021305084228515625,104
2020-12-22 14:26:03.898,-0.6500453948974609,-2.6959524154663086,9.362811088562012,-0.0010652542114257812,0.0,0.0010652542114257812,104
2020-12-22 14:26:03.998,-0.6536369323730469,-2.5846195220947266,9.42506217956543,0.010652542114257812,0.0010652542114257812,0.005326271057128906,104
2020-12-22 14:26:04.098,-0.6739873886108398,-2.682784080505371,9.361613273620604,-0.0010652542114257812,0.0010652542114257812,0.0,104
2020-12-22 14:26:04.198,-0.6751852035522461,-2.650461196899414,9.35562801361084,-0.0010652542114257812,0.0,-0.0010652542114257812,104
2020-12-22 14:26:04.298,-0.6775789260864258,-2.622927665710449,9.392739295959473,0.0,0.0,-0.0021305084228515625,104
2020-12-22 14:26:04.398,-0.67279052734375,-2.70193862915039,9.398724555969238,-0.004261016845703125,0.0,-0.0010652542114257812,104
2020-12-22 14:26:04.498,-0.640467643737793,-2.637292861938477,9.40351390838623,0.0021305084228515625,-0.0010652542114257812,0.0,104
2020-12-22 14:26:04.598,-0.682368278503418,-2.6468706130981445,9.358022689819336,0.0010652542114257812,0.0010652542114257812,0.0010652542114257812,104
2020-12-22 14:26:04.698,-0.7027187347412109,-2.6516590118408203,9.348444938659668,0.0,0.0,-0.0010652542114257812,104
2020-12-22 14:26:04.798,-0.6835651397705078,-2.6456727981567383,9.369993209838867,-0.006391525268554688,-0.0021305084228515625,-0.006391525268554688,104
2020-12-22 14:26:04.898,-0.6991281509399414,-2.667222023010254,9.384359359741213,-0.0021305084228515625,0.0010652542114257812,-0.0021305084228515625,104
2020-12-22 14:26:04.998,-0.682368278503418,-2.675601959228516,9.365204811096193,0.0,0.0,0.0,104
2020-12-22 14:26:05.098,-0.678776741027832,-2.6803903579711914,9.373584747314453,0.007456779479980469,0.0010652542114257812,0.0010652542114257812,104
2020-12-22 14:26:05.198,-0.6703968048095703,-2.705530166625977,9.384359359741213,0.0,0.0,0.0010652542114257812,104
2020-12-22 14:26:05.298,-0.6763820648193359,-2.676798820495605,9.38675308227539,0.0021305084228515625,0.0,0.0,104
2020-12-22 14:26:05.398,-0.6799736022949219,-2.6432790756225586,9.411893844604492,0.006391525268554688,0.0021305084228515625,0.003195762634277344,104
2020-12-22 14:26:05.498,-0.7063102722167969,-2.595393180847168,9.42506217956543,0.006391525268554688,0.004261016845703125,0.0,104
2020-12-22 14:26:05.598,-0.7218732833862305,-2.707923889160156,9.282602310180664,-0.007456779479980469,0.0,0.0,104
2020-12-22 14:26:05.698,-0.6691989898681641,-2.6193361282348637,9.433442115783693,0.005326271057128906,0.0,-0.0010652542114257812,104
2020-12-22 14:26:05.798,-0.6847620010375977,-2.666024208068848,9.392739295959473,0.0,0.0,0.0,104
2020-12-22 14:26:05.898,-0.6811704635620117,-2.70193862915039,9.344853401184082,0.0,0.0,0.0,104
2020-12-22 14:26:05.998,-0.6715936660766602,-2.6432790756225586,9.39633083343506,0.0021305084228515625,0.0,0.0,104
2020-12-22 14:26:06.098,-0.6751852035522461,-2.6911640167236333,9.381964683532717,0.0,0.0,0.0,104
2020-12-22 14:26:06.198,-0.678776741027832,-2.6851787567138667,9.392739295959473,-0.0010652542114257812,0.0,0.0,104
2020-12-22 14:26:06.298,-0.6799736022949219,-2.6720104217529297,9.3855562210083,0.0,0.0,0.0,104
2020-12-22 14:26:06.398,-0.6799736022949219,-2.658841133117676,9.366402626037598,0.004261016845703125,0.0,0.0,104
2020-12-22 14:26:06.498,-0.6799736022949219,-2.649264335632324,9.362811088562012,0.006391525268554688,0.0010652542114257812,0.0,104
2020-12-22 14:26:06.598,-0.6967334747314453,-2.6408843994140625,9.399922370910645,0.0010652542114257812,0.0,0.005326271057128906,104
2020-12-22 14:26:06.698,-0.682368278503418,-2.63370132446289,9.397527694702148,0.0010652542114257812,0.0010652542114257812,0.003195762634277344,104
2020-12-22 14:26:06.798,-0.6955366134643555,-2.6552505493164062,9.3855562210083,0.007456779479980469,0.0021305084228515625,0.0021305084228515625,104
2020-12-22 14:26:06.898,-0.6799736022949219,-2.667222023010254,9.369993209838867,0.007456779479980469,0.0021305084228515625,0.0021305084228515625,104
2020-12-22 14:26:06.998,-0.6799736022949219,-2.667222023010254,9.369993209838867,0.007456779479980469,0.0021305084228515625,0.0021305084228515625,104
2020-12-22 14:26:07.098,-0.6799736022949219,-2.667222023010254,9.369993209838867,0.007456779479980469,0.0021305084228515625,0.0021305084228515625,104
2020-12-22 14:26:07.198,-0.6799736022949219,-2.667222023010254,9.369993209838867,0.007456779479980469,0.0021305084228515625,0.0021305084228515625,104
2020-12-22 14:26:07.298,-0.6799736022949219,-2.667222023010254,9.369993209838867,0.007456779479980469,0.0021305084228515625,0.0021305084228515625,104
2020-12-22 14:26:07.398,-0.7003250122070312,-2.6432790756225586,9.40351390838623,0.0,0.0,0.0,104
2020-12-22 14:26:07.498,-0.6919450759887695,-2.637292861938477,9.392739295959473,0.0021305084228515625,0.0010652542114257812,0.0,104
2020-12-22 14:26:07.598,-0.6895503997802734,-2.632504463195801,9.381964683532717,-0.0021305084228515625,-0.0010652542114257812,0.0,104
2020-12-22 14:26:07.698,-0.6596221923828125,-2.656447410583496,9.401119232177734,-0.003195762634277344,0.0,-0.003195762634277344,104
2020-12-22 14:26:07.798,-0.6703968048095703,-2.654052734375,9.4071044921875,-0.0010652542114257812,0.0,-0.0010652542114257812,104
2020-12-22 14:26:07.898,-0.6955366134643555,-2.626519203186035,9.389147758483887,0.00852203369140625,0.0010652542114257812,0.0010652542114257812,104
2020-12-22 14:26:07.998,-0.67279052734375,-2.62173080444336,9.42625904083252,-0.006391525268554688,0.0,0.0,104
2020-12-22 14:26:08.098,-0.6847620010375977,-2.668418884277344,9.349641799926758,-0.0021305084228515625,0.0,0.0,104
2020-12-22 14:26:08.198,-0.6691989898681641,-2.6624326705932617,9.364007949829102,-0.003195762634277344,0.0,0.0,104
2020-12-22 14:26:08.298,-0.6775789260864258,-2.637292861938477,9.428653717041016,-0.004261016845703125,-0.0010652542114257812,0.0010652542114257812,104
2020-12-22 14:26:08.398,-0.6751852035522461,-2.686375617980957,9.371191024780273,0.009587287902832031,0.0010652542114257812,0.0021305084228515625,104
2020-12-22 14:26:08.498,-0.6931419372558594,-2.5894079208374023,9.514846801757812,-0.007456779479980469,0.0,-0.0021305084228515625,104
2020-12-22 14:26:08.598,-0.6883535385131836,-2.657644271850586,9.369993209838867,0.0,0.0,-0.003195762634277344,104
2020-12-22 14:26:08.698,-0.6859588623046875,-2.6516590118408203,9.338868141174316,0.0021305084228515625,0.0,0.0,104
2020-12-22 14:26:08.798,-0.6979303359985352,-2.666024208068848,9.40471076965332,0.0021305084228515625,0.0,0.004261016845703125,104
2020-12-22 14:26:08.898,-0.682368278503418,-2.650461196899414,9.391542434692383,0.0021305084228515625,0.0,0.0,104
2020-12-22 14:26:08.998,-0.6871566772460938,-2.649264335632324,9.3855562210083,0.0010652542114257812,0.0,0.0,104
2020-12-22 14:26:09.098,-0.6536369323730469,-2.632504463195801,9.40471076965332,-0.0021305084228515625,0.0,0.0,104
2020-12-22 14:26:09.198,-0.6763820648193359,-2.682784080505371,9.439427375793457,-0.0010652542114257812,-0.0010652542114257812,-0.0010652542114257812,104
2020-12-22 14:26:09.298,-0.6751852035522461,-2.630110740661621,9.367599487304688,0.005326271057128906,0.0010652542114257812,0.0,104
2020-12-22 14:26:09.398,-0.6859588623046875,-2.630110740661621,9.398724555969238,0.004261016845703125,0.0,0.0,104
2020-12-22 14:26:09.498,-0.6967334747314453,-2.631307601928711,9.421470642089844,-0.0010652542114257812,0.0010652542114257812,-0.0010652542114257812,104
2020-12-22 14:26:09.598,-0.6895503997802734,-2.6468706130981445,9.37597942352295,0.0,0.0,0.0,104
2020-12-22 14:26:09.698,-0.6656074523925781,-2.5965900421142583,9.360416412353516,-0.0010652542114257812,0.0,0.0010652542114257812,104
2020-12-22 14:26:09.798,-0.7290563583374023,-2.718698501586914,9.326896667480467,0.007456779479980469,0.0,0.0021305084228515625,104
2020-12-22 14:26:09.898,-0.6775789260864258,-2.6384906768798833,9.402316093444824,0.0,0.0,0.0021305084228515625,104
2020-12-22 14:26:09.998,-0.6703968048095703,-2.657644271850586,9.37597942352295,0.0,0.0010652542114257812,0.005326271057128906,104
2020-12-22 14:26:10.098,-0.6871566772460938,-2.667222023010254,9.366402626037598,0.0,0.0,0.0,104
2020-12-22 14:26:10.198,-0.6703968048095703,-2.634899139404297,9.40590763092041,0.0,0.0,0.0,104
2020-12-22 14:26:10.298,-0.6811704635620117,-2.6193361282348637,9.38675308227539,0.007456779479980469,0.0010652542114257812,0.0010652542114257812,104
2020-12-22 14:26:10.398,-0.6799736022949219,-2.6169414520263667,9.393936157226562,0.0021305084228515625,0.0,0.0,104
2020-12-22 14:26:10.498,-0.6991281509399414,-2.63370132446289,9.402316093444824,-0.004261016845703125,0.0,0.0,104
2020-12-22 14:26:10.598,-0.6775789260864258,-2.661235809326172,9.369993209838867,0.0,0.0,0.0,104
2020-12-22 14:26:10.698,-0.682368278503418,-2.631307601928711,9.432244300842283,0.0,0.0,0.0010652542114257812,104
2020-12-22 14:26:10.798,-0.6739873886108398,-2.667222023010254,9.367599487304688,-0.004261016845703125,0.0,0.0,104
2020-12-22 14:26:10.898,-0.6644105911254883,-2.6408843994140625,9.397527694702148,-0.003195762634277344,0.0,-0.0010652542114257812,104
2020-12-22 14:26:10.998,-0.6871566772460938,-2.6851787567138667,9.402316093444824,-0.0010652542114257812,0.0,0.0,104
2020-12-22 14:26:11.098,-0.6943387985229492,-2.6456727981567383,9.349641799926758,0.0,0.0,0.0010652542114257812,104
2020-12-22 14:26:11.198,-0.6835651397705078,-2.6720104217529297,9.378373146057127,-0.0021305084228515625,0.0,0.0,104
2020-12-22 14:26:11.298,-0.6907482147216797,-2.6468706130981445,9.419075965881348,-0.0010652542114257812,-0.0010652542114257812,0.0,104
2020-12-22 14:26:11.398,-0.682368278503418,-2.661235809326172,9.372387886047363,-0.0010652542114257812,-0.0021305084228515625,0.003195762634277344,104
2020-12-22 14:26:11.498,-0.682368278503418,-2.675601959228516,9.384359359741213,0.0,0.0,-0.0010652542114257812,104
2020-12-22 14:26:11.598,-0.6775789260864258,-2.6732072830200195,9.390344619750977,0.007456779479980469,0.0,0.0010652542114257812,104
2020-12-22 14:26:11.698,-0.678776741027832,-2.634899139404297,9.378373146057127,0.004261016845703125,-0.0010652542114257812,0.0010652542114257812,104
2020-12-22 14:26:11.798,-0.6656074523925781,-2.6744041442871094,9.378373146057127,-0.0021305084228515625,-0.0010652542114257812,-0.0010652542114257812,104
2020-12-22 14:26:11.898,-0.6584253311157227,-2.631307601928711,9.398724555969238,0.0,-0.0021305084228515625,-0.0010652542114257812,104
2020-12-22 14:26:11.998,-0.6931419372558594,-2.631307601928711,9.417879104614258,0.0,0.0,0.0,104
2020-12-22 14:26:12.098,-0.6775789260864258,-2.634899139404297,9.368796348571776,0.004261016845703125,0.0,0.0,104
2020-12-22 14:26:12.198,-0.6799736022949219,-2.628912925720215,9.420273780822754,0.0,-0.0010652542114257812,0.0010652542114257812,104
2020-12-22 14:26:12.298,-0.6691989898681641,-2.692361831665039,9.360416412353516,0.006391525268554688,0.0,-0.0021305084228515625,104
2020-12-22 14:26:12.398,-0.6811704635620117,-2.628912925720215,9.380767822265623,-0.0021305084228515625,-0.0010652542114257812,0.0,104
2020-12-22 14:26:12.498,-0.682368278503418,-2.6468706130981445,9.378373146057127,0.0021305084228515625,-0.0010652542114257812,-0.0010652542114257812,104
2020-12-22 14:26:12.598,-0.6835651397705078,-2.6396875381469727,9.395133018493652,0.005326271057128906,0.0,0.0021305084228515625,104
2020-12-22 14:26:12.698,-0.6608190536499023,-2.627716064453125,9.470553398132324,-0.003195762634277344,0.0010652542114257812,0.0021305084228515625,104
2020-12-22 14:26:12.798,-0.6799736022949219,-2.618139266967773,9.413090705871582,-0.003195762634277344,0.0010652542114257812,0.0021305084228515625,104
2020-12-22 14:26:12.898,-0.6799736022949219,-2.618139266967773,9.413090705871582,-0.003195762634277344,0.0010652542114257812,0.0021305084228515625,104
2020-12-22 14:26:12.998,-0.6799736022949219,-2.618139266967773,9.413090705871582,-0.003195762634277344,0.0010652542114257812,0.0021305084228515625,104
2020-12-22 14:26:13.098,-0.6799736022949219,-2.618139266967773,9.413090705871582,-0.003195762634277344,0.0010652542114257812,0.0021305084228515625,104
2020-12-22 14:26:13.198,-0.6799736022949219,-2.618139266967773,9.413090705871582,-0.003195762634277344,0.0010652542114257812,0.0021305084228515625,104
2020-12-22 14:26:13.298,-0.6775789260864258,-2.661235809326172,9.35562801361084,0.009587287902832031,0.0,0.004261016845703125,104
2020-12-22 14:26:13.398,-0.6703968048095703,-2.6468706130981445,9.381964683532717,0.0,0.0,0.0021305084228515625,104
2020-12-22 14:26:13.498,-0.6691989898681641,-2.631307601928711,9.393936157226562,-0.00852203369140625,-0.003195762634277344,-0.003195762634277344,104
2020-12-22 14:26:13.598,-0.6536369323730469,-2.681587219238281,9.399922370910645,0.012783050537109377,0.0010652542114257812,0.0,104
2020-12-22 14:26:13.698,-0.6775789260864258,-2.5606765747070312,9.42625904083252,-0.006391525268554688,-0.0021305084228515625,-0.0021305084228515625,104
2020-12-22 14:26:13.798,-0.7326478958129883,-2.6624326705932617,9.352036476135254,0.004261016845703125,-0.0021305084228515625,0.0021305084228515625,104
2020-12-22 14:26:13.898,-0.7015218734741211,-2.624124526977539,9.429850578308104,-0.0010652542114257812,0.0,0.0010652542114257812,104
2020-12-22 14:26:13.998,-0.6632137298583984,-2.620532989501953,9.380767822265623,-0.010652542114257812,-0.003195762634277344,-0.003195762634277344,104
2020-12-22 14:26:14.098,-0.6895503997802734,-2.661235809326172,9.350839614868164,-0.003195762634277344,0.0,0.0,104
2020-12-22 14:26:14.198,-0.67279052734375,-2.6648273468017583,9.377176284790039,-0.0021305084228515625,0.0,0.0,104
2020-12-22 14:26:14.298,-0.6751852035522461,-2.6456727981567383,9.398724555969238,-0.0010652542114257812,-0.0010652542114257812,0.0,104
2020-12-22 14:26:14.398,-0.6715936660766602,-2.6720104217529297,9.399922370910645,-0.007456779479980469,-0.0010652542114257812,0.0,104
2020-12-22 14:26:14.498,-0.6691989898681641,-2.686375617980957,9.373584747314453,-0.006391525268554688,0.0,-0.0021305084228515625,104
2020-12-22 14:26:14.598,-0.6883535385131836,-2.6947555541992188,9.365204811096193,0.006391525268554688,0.0,0.003195762634277344,104
2020-12-22 14:26:14.698,-0.6715936660766602,-2.749823570251465,9.460975646972656,0.010652542114257812,-0.0010652542114257812,0.003195762634277344,104
2020-12-22 14:26:14.798,-0.682368278503418,-2.541522026062012,9.452595710754396,-0.014913558959960938,-0.0010652542114257812,-0.0010652542114257812,104
2020-12-22 14:26:14.898,-0.6979303359985352,-2.7665843963623047,9.295770645141602,0.006391525268554688,0.0,-0.0010652542114257812,104
2020-12-22 14:26:14.998,-0.678776741027832,-2.6193361282348637,9.379570960998537,0.005326271057128906,0.0,0.005326271057128906,104
2020-12-22 14:26:15.098,-0.6799736022949219,-2.631307601928711,9.398724555969238,-0.006391525268554688,-0.0010652542114257812,-0.0010652542114257812,104
2020-12-22 14:26:15.198,-0.6811704635620117,-2.688770294189453,9.322108268737793,0.0,-0.0010652542114257812,0.0,104
2020-12-22 14:26:15.298,-0.6883535385131836,-2.657644271850586,9.399922370910645,0.0021305084228515625,-0.0010652542114257812,0.0,104
2020-12-22 14:26:15.398,-0.6847620010375977,-2.658841133117676,9.37597942352295,0.0,0.0010652542114257812,0.0,104
2020-12-22 14:26:15.498,-0.6895503997802734,-2.6408843994140625,9.358022689819336,0.0,-0.0010652542114257812,0.0,104
2020-12-22 14:26:15.598,-0.6955366134643555,-2.6456727981567383,9.364007949829102,0.005326271057128906,-0.0010652542114257812,0.0,104
2020-12-22 14:26:15.698,-0.6931419372558594,-2.6408843994140625,9.35562801361084,0.0,0.0,0.0,104
2020-12-22 14:26:15.798,-0.6835651397705078,-2.62173080444336,9.380767822265623,-0.0010652542114257812,-0.0021305084228515625,0.0021305084228515625,104
2020-12-22 14:26:15.898,-0.6680021286010742,-2.668418884277344,9.35443115234375,0.003195762634277344,0.0,0.004261016845703125,104
2020-12-22 14:26:15.998,-0.6955366134643555,-2.6732072830200195,9.35443115234375,0.0,-0.0010652542114257812,0.0010652542114257812,104
2020-12-22 14:26:16.098,-0.731450080871582,-2.800104141235352,9.397527694702148,0.006391525268554688,-0.004261016845703125,0.00852203369140625,104
2020-12-22 14:26:16.198,-0.6440591812133789,-2.6145477294921875,9.513649940490724,-0.011717796325683594,0.0,0.007456779479980469,104
2020-12-22 14:26:16.298,-0.7110986709594727,-2.6516590118408203,9.452595710754396,-0.011717796325683594,-0.003195762634277344,0.0021305084228515625,104
2020-12-22 14:26:16.398,-0.6835651397705078,-2.676798820495605,9.352036476135254,0.0,0.0,-0.0010652542114257812,104
2020-12-22 14:26:16.498,-0.6620168685913086,-2.6480674743652344,9.399922370910645,0.004261016845703125,0.0,0.0021305084228515625,104
2020-12-22 14:26:16.598,-0.7170848846435547,-2.632504463195801,9.391542434692383,0.006391525268554688,0.0,0.003195762634277344,104
2020-12-22 14:26:16.698,-0.6739873886108398,-2.657644271850586,9.38675308227539,-0.0021305084228515625,0.0,-0.006391525268554688,104
2020-12-22 14:26:16.798,-0.6919450759887695,-2.661235809326172,9.373584747314453,0.0,0.0,-0.005326271057128906,104
2020-12-22 14:26:16.898,-0.6835651397705078,-2.6456727981567383,9.377176284790039,0.004261016845703125,-0.0010652542114257812,0.0021305084228515625,104
2020-12-22 14:26:16.998,-0.682368278503418,-2.6552505493164062,9.392739295959473,0.0,-0.0010652542114257812,0.0021305084228515625,104
2020-12-22 14:26:17.098,-0.67279052734375,-2.666024208068848,9.387950897216797,-0.004261016845703125,0.0,-0.0021305084228515625,104
2020-12-22 14:26:17.198,-0.6775789260864258,-2.630110740661621,9.372387886047363,-0.0010652542114257812,0.0,-0.0010652542114257812,104
2020-12-22 14:26:17.298,-0.6668052673339844,-2.650461196899414,9.390344619750977,-0.0021305084228515625,0.0,0.0,104
2020-12-22 14:26:17.398,-0.6703968048095703,-2.658841133117676,9.384359359741213,-0.006391525268554688,0.0,-0.0010652542114257812,104
2020-12-22 14:26:17.498,-0.6799736022949219,-2.658841133117676,9.373584747314453,-0.0021305084228515625,-0.0010652542114257812,-0.0010652542114257812,104
2020-12-22 14:26:17.598,-0.6775789260864258,-2.6744041442871094,9.360416412353516,-0.0010652542114257812,0.0,0.0010652542114257812,104
2020-12-22 14:26:17.698,-0.6859588623046875,-2.654052734375,9.353233337402344,-0.00852203369140625,-0.003195762634277344,0.0,104
2020-12-22 14:26:17.798,-0.7027187347412109,-2.7665843963623047,9.340065002441406,0.007456779479980469,-0.0010652542114257812,0.0021305084228515625,104
2020-12-22 14:26:17.898,-0.6632137298583984,-2.6839818954467773,9.40471076965332,0.004261016845703125,0.0,0.006391525268554688,104
2020-12-22 14:26:17.998,-0.7003250122070312,-2.656447410583496,9.362811088562012,-0.003195762634277344,0.0,-0.0010652542114257812,104
2020-12-22 14:26:18.098,-0.6799736022949219,-2.697150230407715,9.361613273620604,0.00852203369140625,0.0,0.0,104
2020-12-22 14:26:18.198,-0.67279052734375,-2.6444759368896484,9.37478256225586,0.0,0.0,0.0010652542114257812,104
2020-12-22 14:26:18.298,-0.6967334747314453,-2.6803903579711914,9.37597942352295,0.0,0.0,-0.0010652542114257812,104
2020-12-22 14:26:18.398,-0.6644105911254883,-2.660038948059082,9.372387886047363,0.0021305084228515625,0.0,0.0,104
2020-12-22 14:26:18.498,-0.7003250122070312,-2.6947555541992188,9.368796348571776,0.006391525268554688,0.0,-0.0021305084228515625,104
2020-12-22 14:26:18.598,-0.7015218734741211,-2.688770294189453,9.417879104614258,0.010652542114257812,0.0,0.0021305084228515625,104
2020-12-22 14:26:18.698,-0.6907482147216797,-2.620532989501953,9.366402626037598,-0.005326271057128906,-0.0021305084228515625,-0.0010652542114257812,104
2020-12-22 14:26:18.798,-0.6907482147216797,-2.620532989501953,9.366402626037598,-0.005326271057128906,-0.0021305084228515625,-0.0010652542114257812,104
2020-12-22 14:26:18.898,-0.6907482147216797,-2.620532989501953,9.366402626037598,-0.005326271057128906,-0.0021305084228515625,-0.0010652542114257812,104
2020-12-22 14:26:18.998,-0.6907482147216797,-2.620532989501953,9.366402626037598,-0.005326271057128906,-0.0021305084228515625,-0.0010652542114257812,104
2020-12-22 14:26:19.098,-0.6907482147216797,-2.620532989501953,9.366402626037598,-0.005326271057128906,-0.0021305084228515625,-0.0010652542114257812,104
2020-12-22 14:26:19.198,-0.6907482147216797,-2.620532989501953,9.366402626037598,0.0,0.0,0.0,104
2020-12-22 14:26:19.298,-0.6871566772460938,-2.6444759368896484,9.3855562210083,0.0,0.0,0.0,104
2020-12-22 14:26:19.398,-0.6691989898681641,-2.6444759368896484,9.4071044921875,0.0021305084228515625,0.0,0.0010652542114257812,104
2020-12-22 14:26:19.498,-0.6907482147216797,-2.6396875381469727,9.392739295959473,0.0,0.0,0.0,104
2020-12-22 14:26:19.598,-0.6931419372558594,-2.628912925720215,9.371191024780273,-0.006391525268554688,-0.0010652542114257812,0.0,104
2020-12-22 14:26:19.698,-0.6835651397705078,-2.632504463195801,9.372387886047363,0.004261016845703125,0.0,0.0010652542114257812,104
2020-12-22 14:26:19.798,-0.6656074523925781,-2.6648273468017583,9.42745590209961,-0.0021305084228515625,-0.0010652542114257812,0.003195762634277344,104
2020-12-22 14:26:19.898,-0.678776741027832,-2.6839818954467773,9.392739295959473,0.0,-0.0010652542114257812,0.004261016845703125,104
2020-12-22 14:26:19.998,-0.67279052734375,-2.658841133117676,9.372387886047363,0.004261016845703125,-0.0010652542114257812,0.0,104
2020-12-22 14:26:20.098,-0.6895503997802734,-2.660038948059082,9.387950897216797,-0.007456779479980469,-0.0021305084228515625,-0.005326271057128906,104
2020-12-22 14:26:20.198,-0.6943387985229492,-2.682784080505371,9.360416412353516,-0.0021305084228515625,0.0,-0.0010652542114257812,104
2020-12-22 14:26:20.298,-0.6835651397705078,-2.6420812606811523,9.349641799926758,0.0,0.0,0.0,104
2020-12-22 14:26:20.398,-0.6931419372558594,-2.656447410583496,9.380767822265623,-0.0010652542114257812,0.0,0.0,104
2020-12-22 14:26:20.498,-0.6799736022949219,-2.630110740661621,9.395133018493652,-0.010652542114257812,-0.0010652542114257812,-0.007456779479980469,104
2020-12-22 14:26:20.598,-0.6835651397705078,-2.679192543029785,9.37478256225586,-0.0021305084228515625,0.0,-0.0010652542114257812,104
2020-12-22 14:26:20.698,-0.6691989898681641,-2.707923889160156,9.369993209838867,0.01810932159423828,0.003195762634277344,0.010652542114257812,104
2020-12-22 14:26:20.798,-0.6859588623046875,-2.666024208068848,9.3855562210083,0.006391525268554688,0.0,-0.0021305084228515625,104
2020-12-22 14:26:20.898,-0.6847620010375977,-2.6384906768798833,9.38675308227539,-0.0010652542114257812,0.003195762634277344,-0.006391525268554688,104
2020-12-22 14:26:20.998,-0.6943387985229492,-2.6959524154663086,9.381964683532717,0.019174575805664062,0.003195762634277344,0.0170440673828125,104
2020-12-22 14:26:21.098,-0.6979303359985352,-2.588210105895996,9.401119232177734,0.03728485107421875,-0.0010652542114257812,0.021305084228515625,104
2020-12-22 14:26:21.198,-0.7242679595947266,-2.60257625579834,9.377176284790039,0.04687213897705078,-0.007456779479980469,0.04687213897705078,104
2020-12-22 14:26:21.298,-0.6907482147216797,-2.5307483673095703,9.42745590209961,0.0287628173828125,-0.007456779479980469,0.03621959686279297,104
2020-12-22 14:26:21.398,-0.6943387985229492,-2.5056076049804688,9.435835838317873,0.020239830017089844,-0.005326271057128906,0.019174575805664062,104
2020-12-22 14:26:21.498,-0.6979303359985352,-2.468496322631836,9.421470642089844,0.007456779479980469,0.0,0.0010652542114257812,104
2020-12-22 14:26:21.598,-0.6967334747314453,-2.497227668762207,9.451398849487305,-0.005326271057128906,0.0,-0.005326271057128906,104
2020-12-22 14:26:21.698,-0.6991281509399414,-2.497227668762207,9.42625904083252,-0.019174575805664062,-0.0021305084228515625,-0.01810932159423828,104
2020-12-22 14:26:21.798,-0.7015218734741211,-2.5894079208374023,9.410696029663086,0.005326271057128906,-0.0010652542114257812,0.004261016845703125,104
2020-12-22 14:26:21.898,-0.6931419372558594,-2.4924392700195312,9.415484428405762,0.02556705474853516,0.004261016845703125,0.011717796325683594,104
2020-12-22 14:26:21.998,-0.705113410949707,-2.539128303527832,9.42745590209961,0.2801723480224609,0.042611122131347656,0.033023834228515625,104
2020-12-22 14:26:22.098,-0.7889127731323242,-2.225478172302246,9.535198211669922,-0.019174575805664062,-0.011717796325683594,0.011717796325683594,104
2020-12-22 14:26:22.198,-0.6991281509399414,-2.1644239425659184,9.55435276031494,-0.19175338745117188,-0.014913558959960938,-0.0980072021484375,104
2020-12-22 14:26:22.298,-0.6799736022949219,-2.60257625579834,9.411893844604492,-0.1448802947998047,0.006391525268554688,-0.08202743530273438,104
2020-12-22 14:26:22.398,-0.6763820648193359,-2.705530166625977,9.35682487487793,-0.054329872131347656,0.012783050537109377,-0.02982807159423828,104
2020-12-22 14:26:22.498,-0.705113410949707,-2.79172420501709,9.317319869995117,0.0,0.009587287902832031,-0.02982807159423828,104
2020-12-22 14:26:22.598,-0.7230701446533203,-2.8731288909912114,9.258659362792967,0.02556705474853516,-0.0010652542114257812,0.01810932159423828,104
2020-12-22 14:26:22.698,-0.6452569961547852,-2.654052734375,9.451398849487305,0.011717796325683594,-0.005326271057128906,0.021305084228515625,104
2020-12-22 14:26:22.798,-0.6751852035522461,-2.5678586959838867,9.4071044921875,0.01810932159423828,-0.003195762634277344,0.011717796325683594,104
2020-12-22 14:26:22.898,-0.7099018096923828,-2.654052734375,9.38316249847412,-0.006391525268554688,0.0,0.0,104
2020-12-22 14:26:22.998,-0.6919450759887695,-2.626519203186035,9.387950897216797,-0.02237033843994141,0.0,-0.019174575805664062,104
2020-12-22 14:26:23.098,-0.6644105911254883,-2.692361831665039,9.47414493560791,-0.033023834228515625,-0.0010652542114257812,-0.00852203369140625,104
2020-12-22 14:26:23.198,-0.6620168685913086,-2.5271568298339844,9.481327056884766,0.013848304748535156,0.0,0.003195762634277344,104
2020-12-22 14:26:23.298,-0.7110986709594727,-2.716303825378418,9.311333656311037,0.006391525268554688,0.0,0.004261016845703125,104
2020-12-22 14:26:23.398,-0.67279052734375,-2.558281898498535,9.471750259399414,-0.006391525268554688,-0.0021305084228515625,0.0010652542114257812,104
2020-12-22 14:26:23.498,-0.6763820648193359,-2.625321388244629,9.381964683532717,-0.0021305084228515625,-0.0021305084228515625,-0.0021305084228515625,104
2020-12-22 14:26:23.598,-0.6991281509399414,-2.6456727981567383,9.38675308227539,-0.005326271057128906,0.0,0.0,104
2020-12-22 14:26:23.698,-0.6931419372558594,-2.634899139404297,9.369993209838867,0.006391525268554688,0.0,0.0,104
2020-12-22 14:26:23.798,-0.6249055862426758,-2.649264335632324,9.507664680480957,-0.023435592651367188,0.0010652542114257812,0.005326271057128906,104
2020-12-22 14:26:23.898,-0.678776741027832,-2.569056510925293,9.38316249847412,0.007456779479980469,-0.0010652542114257812,0.0,104
2020-12-22 14:26:23.998,-0.7194786071777344,-2.668418884277344,9.35443115234375,0.0010652542114257812,-0.0010652542114257812,0.0,104
2020-12-22 14:26:24.098,-0.6859588623046875,-2.6384906768798833,9.420273780822754,-0.0021305084228515625,-0.0021305084228515625,0.004261016845703125,104
2020-12-22 14:26:24.198,-0.7338447570800781,-2.6444759368896484,9.330488204956056,0.006391525268554688,0.0,0.0,104
2020-12-22 14:26:24.298,-0.6045541763305664,-2.663630485534668,9.468158721923828,-0.02982807159423828,0.0,0.0021305084228515625,104
2020-12-22 14:26:24.398,-0.6811704635620117,-2.5127906799316406,9.422667503356934,0.005326271057128906,-0.003195762634277344,0.0,104
2020-12-22 14:26:24.498,-0.7218732833862305,-2.6708126068115234,9.360416412353516,0.0,0.0,0.0021305084228515625,104
2020-12-22 14:26:24.598,-0.6907482147216797,-2.63370132446289,9.420273780822754,-0.004261016845703125,0.0,0.0010652542114257812,104
2020-12-22 17:07:21.945,3.181990623474121,3.3184642791748047,8.655303001403809,0.026632308959960938,0.01810932159423828,-0.019174575805664062,104
2020-12-22 17:07:22.045,3.15325927734375,3.214313507080078,8.719947814941406,0.0010652542114257812,-0.00852203369140625,0.0,104
2020-12-22 17:07:22.145,3.117344856262207,3.434586524963379,8.790578842163086,-0.007456779479980469,0.02769756317138672,-0.021305084228515625,104
2020-12-22 17:07:22.245,3.1161479949951167,3.229876518249512,8.637345314025879,-0.003195762634277344,-0.003195762634277344,-0.012783050537109377,104
2020-12-22 17:07:22.345,3.120936393737793,3.3591670989990234,8.694808006286621,0.012783050537109377,0.01810932159423828,-0.00852203369140625,104
2020-12-22 17:07:22.445,3.029953956604004,3.301704406738281,8.746285438537598,-0.013848304748535156,0.026632308959960938,-0.052199363708496094,104
2020-12-22 17:07:22.545,2.9138317108154297,3.3531808853149414,8.942615509033203,-0.013848304748535156,0.030893325805664062,-0.06604766845703125,104
2020-12-22 17:07:22.645,3.306492805480957,2.973689079284668,9.23591423034668,-0.1438150405883789,0.006391525268554688,-0.09481048583984376,104
2020-12-22 17:07:22.745,1.3312158584594729,3.2562131881713867,8.072297096252441,-0.08735370635986328,-0.1214437484741211,-0.04474163055419922,104
2020-12-22 17:07:22.845,-0.4022378921508789,3.8859071731567374,8.602628707885742,0.39202880859375,0.4719257354736328,-0.6349163055419922,104
2020-12-22 17:07:22.945,1.5395183563232422,0.02154827117919922,9.219154357910156,-0.9630279541015624,1.0599699020385742,-0.5219945907592773,104
2020-12-22 17:07:23.045,1.869928359985352,1.5239553451538086,9.939830780029297,-2.4608354568481445,0.9246768951416016,-0.10546398162841797,104
2020-12-22 17:07:23.145,1.4018478393554688,2.0219640731811523,10.071516036987305,0.34302520751953125,0.4282493591308594,0.12250900268554688,104
2020-12-22 17:07:23.245,0.5506830215454102,1.0283403396606443,9.390344619750977,-0.2013406753540039,0.0980072021484375,0.4420976638793945,104
2020-12-22 17:07:23.345,0.1448535919189453,0.4680805206298828,10.69642162322998,-0.1906881332397461,-0.2567358016967773,0.1853609085083008,104
2020-12-22 17:07:23.445,0.15682411193847656,0.7829275131225586,10.162498474121094,-0.3185234069824219,0.05539512634277344,0.0862884521484375,104
2020-12-22 17:07:23.545,0.4070262908935547,-0.2897071838378906,9.754274368286133,-0.1736431121826172,0.02982807159423828,0.2482137680053711,104
2020-12-22 17:07:23.645,0.2286529541015625,0.5315284729003906,9.821314811706543,0.196014404296875,-0.040480613708496094,0.0628519058227539,104
2020-12-22 17:07:23.745,0.4776573181152344,0.9038381576538086,9.69681167602539,0.3238496780395508,-0.03621959686279297,-0.0628519058227539,104
2020-12-22 17:07:23.845,0.3603382110595703,1.1444625854492188,9.707586288452148,0.38031005859375,-0.05113410949707031,-0.02237033843994141,104
2020-12-22 17:07:23.945,0.372309684753418,1.5502920150756836,9.676461219787598,0.2364950180053711,-0.020239830017089844,0.09481048583984376,104
2020-12-22 17:07:24.045,0.4561090469360352,1.5562782287597656,9.71476936340332,0.09694194793701172,-0.02237033843994141,-0.031958580017089844,104
2020-12-22 17:07:24.145,0.4154062271118164,1.2390365600585938,9.768640518188477,-0.057525634765625,-0.006391525268554688,-0.04793834686279297,104
2020-12-22 17:07:24.245,0.37709808349609375,1.0953798294067385,9.756669044494627,-0.042611122131347656,0.0,-0.0862884521484375,104
2020-12-22 17:07:24.345,0.3591403961181641,1.3407936096191406,9.78659725189209,-0.05965614318847656,0.007456779479980469,-0.04687213897705078,104
2020-12-22 17:07:24.445,0.457305908203125,1.5323352813720703,9.64653205871582,0.1725778579711914,-0.03515434265136719,-0.010652542114257812,104
2020-12-22 17:07:24.545,0.434560775756836,1.5562782287597656,9.64413833618164,0.010652542114257812,0.010652542114257812,0.04687213897705078,104
2020-12-22 17:07:24.645,0.43096923828125,1.6161346435546875,9.630970001220703,-0.006391525268554688,0.009587287902832031,0.009587287902832031,104
2020-12-22 17:07:24.745,0.434560775756836,1.5323352813720703,9.675263404846193,-0.0010652542114257812,-0.0010652542114257812,-0.003195762634277344,104
2020-12-22 17:07:24.845,0.4154062271118164,1.3743133544921875,9.727937698364258,-0.030893325805664062,0.007456779479980469,-0.006391525268554688,104
2020-12-22 17:07:24.945,0.5123739242553711,1.5155754089355469,9.63575839996338,-0.007456779479980469,0.013848304748535156,-0.014913558959960938,104
2020-12-22 17:07:25.045,0.35315513610839844,1.3108654022216797,9.76624584197998,-0.11079025268554688,0.02450180053710937,-0.02237033843994141,104
2020-12-22 17:07:25.145,0.33759212493896484,1.3312158584594729,9.71596622467041,-0.07350540161132812,0.013848304748535156,0.02450180053710937,104
2020-12-22 17:07:25.245,0.3543519973754883,1.1145343780517578,9.733922958374023,-0.0862884521484375,0.007456779479980469,-0.0021305084228515625,104
2020-12-22 17:07:25.345,0.3651266098022461,1.1145343780517578,9.771034240722656,-0.04474163055419922,0.013848304748535156,0.003195762634277344,104
2020-12-22 17:07:25.445,0.3196353912353516,1.0043973922729492,9.804553985595703,-0.02982807159423828,0.02237033843994141,0.04687213897705078,104
2020-12-22 17:07:25.545,0.3076639175415039,0.8834867477416992,9.76504898071289,-0.05006885528564453,0.014913558959960938,0.02982807159423828,104
2020-12-22 17:07:25.645,0.366323471069336,0.9493293762207032,9.78420352935791,-0.04900360107421875,0.013848304748535156,-0.020239830017089844,104
2020-12-22 17:07:25.745,0.2669610977172852,0.8607416152954102,9.769837379455566,-0.1448802947998047,0.014913558959960938,-0.02450180053710937,104
2020-12-22 17:07:25.845,0.2705526351928711,0.6500453948974609,9.78659725189209,-0.12890052795410156,0.00852203369140625,-0.02769756317138672,104
2020-12-22 17:07:25.945,0.20830154418945312,0.6069478988647461,9.821314811706543,-0.11398601531982422,0.019174575805664062,-0.0021305084228515625,104
2020-12-22 17:07:26.045,0.24541282653808594,0.32202911376953125,9.83687686920166,-0.16512012481689453,0.012783050537109377,-0.02769756317138672,104
2020-12-22 17:07:26.145,0.27773571014404297,0.19633007049560547,9.781808853149414,-0.11505126953125,0.014913558959960938,-0.06711292266845703,104
2020-12-22 17:07:26.245,0.20590686798095706,0.19273853302001956,9.810540199279783,-0.15872859954833984,0.042611122131347656,-0.02769756317138672,104
2020-12-22 17:07:26.345,0.15203571319580078,0.057461738586425774,9.83687686920166,-0.12250900268554688,0.03515434265136719,-0.006391525268554688,104
2020-12-22 17:07:26.445,0.173583984375,0.06703948974609375,9.79617404937744,-0.0021305084228515625,0.010652542114257812,0.03941535949707031,104
2020-12-22 17:07:26.545,0.1987247467041016,0.11971282958984375,9.769837379455566,-0.007456779479980469,0.006391525268554688,0.0021305084228515625,104
2020-12-22 17:07:26.645,0.1340789794921875,0.08020782470703125,9.791385650634766,-0.021305084228515625,0.010652542114257812,-0.0010652542114257812,104
2020-12-22 17:07:26.745,0.1364736557006836,0.02154827117919922,9.840468406677246,-0.02982807159423828,0.006391525268554688,0.007456779479980469,104
2020-12-22 17:07:26.845,0.19273853302001956,0.10295295715332033,9.771034240722656,0.00852203369140625,-0.004261016845703125,0.0021305084228515625,104
2020-12-22 17:07:26.945,0.15921878814697266,0.08260154724121094,9.817723274230957,-0.023435592651367188,0.005326271057128906,0.0,104
2020-12-22 17:07:27.045,0.11731910705566405,-0.0011968612670898438,9.881171226501463,-0.007456779479980469,-0.0021305084228515625,-0.0010652542114257812,104
2020-12-22 17:07:27.145,0.147247314453125,-0.02035045623779297,9.830891609191896,-0.01810932159423828,-0.0010652542114257812,0.0,104
2020-12-22 17:07:27.245,0.12929058074951172,0.004788398742675781,9.808145523071287,-0.003195762634277344,-0.0010652542114257812,0.0021305084228515625,104
2020-12-22 17:07:27.345,0.12450218200683595,-0.023941993713378903,9.803357124328613,0.0,0.0,-0.003195762634277344,104
2020-12-22 17:07:27.445,0.17717552185058594,0.009576797485351562,9.760260581970217,0.009587287902832031,-0.00852203369140625,-0.006391525268554688,104
2020-12-22 17:07:27.545,0.11731910705566405,-0.061053276062011726,9.824905395507812,-0.012783050537109377,0.0010652542114257812,-0.0021305084228515625,104
2020-12-22 17:07:27.645,0.19633007049560547,-0.1496419906616211,9.846454620361328,-0.0287628173828125,-0.006391525268554688,-0.0170440673828125,104
2020-12-22 17:07:27.745,0.15682411193847656,-0.07182788848876953,9.817723274230957,-0.009587287902832031,-0.003195762634277344,-0.013848304748535156,104
2020-12-22 17:07:27.845,0.183161735534668,-0.06703948974609375,9.799765586853027,0.013848304748535156,-0.004261016845703125,0.003195762634277344,104
2020-12-22 17:07:27.945,0.12569904327392578,-0.041899681091308594,9.821314811706543,-0.023435592651367188,0.006391525268554688,0.0021305084228515625,104
2020-12-22 17:07:28.045,0.12569904327392578,-0.041899681091308594,9.821314811706543,0.00852203369140625,-0.0021305084228515625,0.003195762634277344,104
2020-12-22 17:07:28.145,0.12569904327392578,-0.041899681091308594,9.821314811706543,0.00852203369140625,-0.0021305084228515625,0.003195762634277344,104
2020-12-22 17:07:28.245,0.12569904327392578,-0.041899681091308594,9.821314811706543,0.00852203369140625,-0.0021305084228515625,0.003195762634277344,104
2020-12-22 17:07:28.345,0.12569904327392578,-0.041899681091308594,9.821314811706543,0.00852203369140625,-0.0021305084228515625,0.003195762634277344,104
2020-12-22 17:07:28.445,0.12569904327392578,-0.041899681091308594,9.821314811706543,0.00852203369140625,-0.0021305084228515625,0.003195762634277344,104
2020-12-22 17:07:28.545,0.13048744201660156,-0.0814046859741211,9.777020454406738,0.00852203369140625,-0.0021305084228515625,0.003195762634277344,104
2020-12-22 17:07:28.645,0.12450218200683595,-0.13886737823486328,9.785400390625,-0.020239830017089844,0.0,0.0021305084228515625,104
2020-12-22 17:07:28.745,0.11731910705566405,-0.16879558563232422,9.809343338012695,-0.02769756317138672,0.0,-0.005326271057128906,104
2020-12-22 17:07:28.845,0.14245891571044922,-0.08379936218261719,9.828496932983398,0.033023834228515625,-0.005326271057128906,0.0,104
2020-12-22 17:07:28.945,0.12569904327392578,-0.147247314453125,9.83568000793457,0.023435592651367188,-0.006391525268554688,0.006391525268554688,104
2020-12-22 17:07:29.045,0.12809276580810547,-0.0395050048828125,9.788991928100586,0.02450180053710937,-0.004261016845703125,0.0,104
2020-12-22 17:07:29.145,0.17717552185058594,0.12450218200683595,9.78659725189209,0.01810932159423828,-0.007456779479980469,-0.0021305084228515625,104
2020-12-22 17:07:29.245,0.1975269317626953,0.10295295715332033,9.81293487548828,0.09907245635986328,-0.020239830017089844,-0.0021305084228515625,104
2020-12-22 17:07:29.345,0.19034481048583984,0.0035905838012695312,9.821314811706543,0.009587287902832031,-0.0010652542114257812,0.0,104
2020-12-22 17:07:29.445,0.16879558563232422,0.07781314849853516,9.785400390625,0.026632308959960938,-0.003195762634277344,0.0,104
2020-12-22 17:07:29.545,0.13048744201660156,0.11731910705566405,9.783005714416504,0.019174575805664062,-0.0021305084228515625,0.0010652542114257812,104
2020-12-22 17:07:29.645,0.17478179931640625,0.04070186614990234,9.800963401794434,0.019174575805664062,-0.006391525268554688,-0.009587287902832031,104
2020-12-22 17:07:29.745,0.2394266128540039,0.08978462219238281,9.82610321044922,0.03621959686279297,-0.007456779479980469,0.004261016845703125,104
2020-12-22 17:07:29.845,0.1999216079711914,0.1915416717529297,9.809343338012695,0.030893325805664062,-0.0010652542114257812,0.004261016845703125,104
2020-12-22 17:07:29.945,0.20111846923828125,0.08260154724121094,9.814131736755373,-0.011717796325683594,0.003195762634277344,0.0,104
2020-12-22 17:07:30.045,0.14365577697753906,0.09816455841064453,9.83448314666748,-0.03515434265136719,0.00852203369140625,0.004261016845703125,104
2020-12-22 17:07:30.145,0.17238712310791016,0.1604156494140625,9.820116996765137,0.030893325805664062,-0.0010652542114257812,0.021305084228515625,104
2020-12-22 17:07:30.245,0.2106952667236328,0.046688079833984375,9.830891609191896,-0.01597881317138672,-0.0021305084228515625,-0.019174575805664062,104
2020-12-22 17:07:30.345,0.14605045318603516,0.12330436706542967,9.828496932983398,-0.026632308959960938,0.0,-0.009587287902832031,104
2020-12-22 17:07:30.445,0.16520404815673828,-0.004788398742675781,9.830891609191896,0.0170440673828125,-0.0021305084228515625,0.003195762634277344,104
2020-12-22 17:07:30.545,0.13288211822509766,0.12569904327392578,9.797371864318848,-0.0010652542114257812,-0.0010652542114257812,0.006391525268554688,104
2020-12-22 17:07:30.645,0.23224449157714844,0.17957019805908206,9.811737060546877,0.04154586791992188,-0.006391525268554688,0.005326271057128906,104
2020-12-22 17:07:30.745,0.1783733367919922,0.029928207397460938,9.820116996765137,0.014913558959960938,-0.003195762634277344,-0.01597881317138672,104
2020-12-22 17:07:30.845,0.16759872436523438,0.08020782470703125,9.808145523071287,0.005326271057128906,-0.003195762634277344,0.003195762634277344,104
2020-12-22 17:07:30.945,0.1580219268798828,0.11492443084716795,9.822511672973633,0.0170440673828125,0.0010652542114257812,0.010652542114257812,104
2020-12-22 17:07:31.045,0.1604156494140625,0.14605045318603516,9.773428916931152,0.006391525268554688,-0.003195762634277344,-0.005326271057128906,104
2020-12-22 17:07:31.145,0.16161346435546875,0.15562725067138672,9.852439880371094,0.0,-0.0010652542114257812,-0.0010652542114257812,104
2020-12-22 17:07:31.245,0.16759872436523438,0.09696769714355467,9.80575180053711,-0.010652542114257812,-0.0010652542114257812,-0.0021305084228515625,104
2020-12-22 17:07:31.345,0.173583984375,0.18076705932617188,9.809343338012695,0.006391525268554688,0.0,0.0,104
2020-12-22 17:07:31.445,0.173583984375,0.12929058074951172,9.811737060546877,-0.0010652542114257812,0.005326271057128906,0.014913558959960938,104
2020-12-22 17:07:31.545,0.1364736557006836,0.13288211822509766,9.82610321044922,0.0,-0.003195762634277344,0.004261016845703125,104
2020-12-22 17:07:31.645,0.15203571319580078,0.05147647857666016,9.850045204162598,0.0,-0.006391525268554688,-0.02237033843994141,104
2020-12-22 17:07:31.745,0.215484619140625,0.07661628723144531,9.79617404937744,0.030893325805664062,-0.012783050537109377,-0.014913558959960938,104
2020-12-22 17:07:31.845,0.20710468292236328,0.2513980865478516,9.83568000793457,0.07776641845703125,-0.003195762634277344,0.02982807159423828,104
2020-12-22 17:07:31.945,0.3184385299682617,0.44772911071777344,9.793780326843262,0.16831684112548828,-0.019174575805664062,0.05113410949707031,104
2020-12-22 17:07:32.045,0.17717552185058594,0.6775789260864258,9.785400390625,0.20027542114257807,-0.02237033843994141,0.034089088439941406,104
2020-12-22 17:07:32.145,0.2597780227661133,0.9373579025268556,9.741106033325195,0.22797298431396484,-0.0287628173828125,0.07137489318847656,104
2020-12-22 17:07:32.245,0.21428680419921875,1.1061544418334959,9.841665267944336,0.2354297637939453,-0.030893325805664062,0.05965614318847656,104
2020-12-22 17:07:32.345,0.3124523162841797,1.1767854690551758,9.785400390625,0.2311687469482422,-0.05006885528564453,0.02769756317138672,104
2020-12-22 17:07:32.445,0.366323471069336,1.2641763687133791,9.725543022155762,0.09481048583984376,-0.02982807159423828,-0.030893325805664062,104
2020-12-22 17:07:32.545,0.34597206115722656,1.3192453384399414,9.775823593139648,-0.02450180053710937,-0.007456779479980469,-0.0287628173828125,104
2020-12-22 17:07:32.645,0.4417428970336914,1.2881193161010742,9.733922958374023,-0.03835010528564453,-0.004261016845703125,-0.011717796325683594,104
2020-12-22 17:07:32.745,0.30048084259033203,1.2881193161010742,9.773428916931152,-0.007456779479980469,0.006391525268554688,0.045806884765625,104
2020-12-22 17:07:32.845,0.37949180603027344,1.1217174530029297,9.841665267944336,0.13103103637695312,-0.02556705474853516,0.06817817687988281,104
2020-12-22 17:07:32.945,0.6284961700439453,2.3344173431396484,9.397527694702148,0.3771142959594727,-0.0862884521484375,-0.020239830017089844,104
2020-12-22 17:07:33.045,0.3890695571899414,2.1129465103149414,9.647729873657227,0.4186611175537109,-0.08522319793701172,-0.05326461791992188,104
2020-12-22 17:07:33.145,0.7302532196044922,2.29132080078125,9.31253147125244,0.08735370635986328,-0.010652542114257812,0.11398601531982422,104
2020-12-22 17:07:33.245,0.5016002655029297,2.468496322631836,9.572309494018556,-0.04793834686279297,0.01597881317138672,0.02769756317138672,104
2020-12-22 17:07:33.345,0.5758228302001953,2.3703317642211914,9.489706993103027,0.10546398162841797,-0.014913558959960938,0.09374523162841797,104
2020-12-22 17:07:33.445,0.6680021286010742,2.747429847717285,9.395133018493652,0.19388389587402344,-0.02982807159423828,0.13635730743408206,104
2020-12-22 17:07:33.545,0.9361610412597656,2.94375991821289,9.279010772705078,0.3121318817138672,-0.06072139739990234,0.2130584716796875,104
2020-12-22 17:07:33.645,0.8248271942138672,3.1831874847412114,9.249082565307617,0.13529205322265625,0.004261016845703125,0.20347118377685547,104
2020-12-22 17:07:33.745,0.986440658569336,3.1568508148193364,9.19281768798828,-0.010652542114257812,-0.02982807159423828,0.13103103637695312,104
2020-12-22 17:07:33.845,0.8284187316894531,3.0479116439819336,9.379570960998537,-0.03621959686279297,0.013848304748535156,0.22690773010253906,104
2020-12-22 17:07:33.945,0.9624977111816406,3.20473575592041,9.31492519378662,0.1043987274169922,-0.019174575805664062,0.061786651611328125,104
2020-12-22 17:07:34.045,0.9936237335205078,3.086219787597656,9.259857177734377,0.12357425689697266,-0.012783050537109377,0.056460380554199226,104
2020-12-22 17:07:34.145,1.015172004699707,3.1628360748291016,9.239505767822266,0.12250900268554688,-0.011717796325683594,0.05539512634277344,104
2020-12-22 17:07:34.245,0.975666046142578,3.1436824798583984,9.295770645141602,0.1320962905883789,-0.007456779479980469,0.06604766845703125,104
2020-12-22 17:07:34.345,0.9636955261230468,2.9808712005615234,9.317319869995117,0.1502065658569336,-0.007456779479980469,0.058590888977050774,104
2020-12-22 17:07:34.445,0.9517240524291992,3.2250871658325195,9.322108268737793,0.14061832427978516,-0.012783050537109377,0.05326461791992188,104
2020-12-22 17:07:34.545,1.127702713012695,3.34480094909668,9.188028335571287,0.040480613708496094,-0.054329872131347656,0.0287628173828125,104
2020-12-22 17:07:34.645,1.0606632232666016,3.15325927734375,9.251477241516113,0.03835010528564453,-0.0628519058227539,0.006391525268554688,104
2020-12-22 17:07:34.745,1.1851654052734375,3.091008186340332,9.18563461303711,-0.10226821899414062,-0.06711292266845703,-0.07137489318847656,104
2020-12-22 17:07:34.845,1.164813995361328,2.782146453857422,9.197606086730957,-0.2194509506225586,-0.06604766845703125,-0.16298961639404294,104
2020-12-22 17:07:34.945,1.0654516220092771,2.569056510925293,9.4968900680542,-0.19388389587402344,-0.009587287902832031,-0.13103103637695312,104
2020-12-22 17:07:35.045,0.8786983489990234,2.5163822174072266,9.349641799926758,-0.030893325805664062,0.026632308959960938,-0.03728485107421875,104
2020-12-22 17:07:35.145,0.7865190505981445,3.1748075485229488,9.680051803588867,-0.01810932159423828,0.09481048583984376,-0.08309268951416016,104
2020-12-22 17:07:35.245,0.9972152709960938,3.287338256835937,8.943812370300293,-0.006391525268554688,0.07563591003417969,-0.1672515869140625,104
2020-12-22 17:07:35.345,0.6871566772460938,2.425399780273437,9.52562141418457,-0.09374523162841797,0.0916147232055664,-0.04687213897705078,104
2020-12-22 17:07:35.445,0.7972927093505859,2.3056859970092773,9.532804489135742,-0.056460380554199226,0.013848304748535156,-0.02450180053710937,104
2020-12-22 17:07:35.545,0.682368278503418,2.809680938720703,9.591464042663574,0.12783527374267578,0.033023834228515625,0.042611122131347656,104
2020-12-22 17:07:35.645,0.8679237365722656,2.7977094650268555,9.439427375793457,0.23969173431396484,0.009587287902832031,0.2375602722167969,104
2020-12-22 17:07:35.745,0.8535585403442383,3.3735322952270512,8.933038711547852,0.20986270904541016,0.006391525268554688,0.20986270904541016,104
2020-12-22 17:07:35.845,0.9589061737060548,3.094599723815918,9.301756858825684,-0.11931324005126953,0.009587287902832031,0.1555328369140625,104
2020-12-22 17:07:35.945,0.9086265563964844,3.0371370315551762,9.310136795043944,-0.05539512634277344,-0.03621959686279297,-0.003195762634277344,104
2020-12-22 17:07:36.045,0.922992706298828,2.72468376159668,9.44780731201172,-0.2716503143310547,-0.02982807159423828,-0.0692434310913086,104
2020-12-22 17:07:36.145,1.006792068481445,2.5235652923583984,9.431047439575195,-0.23862648010253906,-0.04474163055419922,-0.0926799774169922,104
2020-12-22 17:07:36.245,0.9421463012695312,2.121326446533203,9.573507308959961,-0.2311687469482422,-0.05113410949707031,-0.1438150405883789,104
2020-12-22 17:07:36.345,1.0762262344360352,2.312869071960449,9.391542434692383,-0.10865974426269533,-0.026632308959960938,-0.11185550689697266,104
2020-12-22 17:07:36.445,0.9636955261230468,2.3942737579345703,9.52442455291748,0.020239830017089844,-0.02769756317138672,-0.10120296478271484,104
2020-12-22 17:07:36.545,0.9517240524291992,2.2613916397094727,9.563929557800293,-0.045806884765625,0.01810932159423828,-0.0628519058227539,104
2020-12-22 17:07:36.645,0.9433441162109376,2.303291320800781,9.512453079223633,0.010652542114257812,-0.0021305084228515625,-0.014913558959960938,104
2020-12-22 17:07:36.745,0.9613008499145508,2.379908561706543,9.47773551940918,0.009587287902832031,0.009587287902832031,0.01810932159423828,104
2020-12-22 17:07:36.845,0.9313726425170898,2.3092775344848637,9.493298530578613,-0.02450180053710937,0.02450180053710937,0.0287628173828125,104
2020-12-22 17:07:36.945,0.9182043075561525,2.258997917175293,9.531606674194336,-0.026632308959960938,0.014913558959960938,0.01597881317138672,104
2020-12-22 17:07:37.045,0.922992706298828,2.230266571044922,9.528016090393066,0.0010652542114257812,-0.0021305084228515625,0.0,104
2020-12-22 17:07:37.145,0.920598030090332,2.2350549697875977,9.49569320678711,-0.031958580017089844,0.0,0.0021305084228515625,104
2020-12-22 17:07:37.245,0.956512451171875,2.2470264434814453,9.514846801757812,-0.013848304748535156,-0.003195762634277344,0.0010652542114257812,104
2020-12-22 17:07:37.345,0.926584243774414,2.1883668899536133,9.536396026611328,0.0,-0.007456779479980469,-0.0021305084228515625,104
2020-12-22 17:07:37.445,0.9553155899047852,2.2542095184326167,9.519636154174805,0.010652542114257812,-0.006391525268554688,0.0,104
2020-12-22 17:07:37.545,0.9636955261230468,2.2949113845825195,9.501678466796877,0.010652542114257812,-0.004261016845703125,0.0010652542114257812,104
2020-12-22 17:07:37.645,0.9613008499145508,2.255406379699707,9.514846801757812,0.012783050537109377,-0.0010652542114257812,0.005326271057128906,104
2020-12-22 17:07:37.745,0.9613008499145508,2.238646507263184,9.529212951660156,-0.004261016845703125,0.0,0.003195762634277344,104
2020-12-22 17:07:37.845,0.9289779663085938,2.218295097351074,9.52562141418457,0.0021305084228515625,-0.003195762634277344,0.004261016845703125,104
2020-12-22 17:07:37.945,0.9361610412597656,2.2709693908691406,9.530409812927246,0.004261016845703125,-0.0010652542114257812,0.0010652542114257812,104
2020-12-22 17:07:38.045,0.9457378387451172,2.256603240966797,9.498086929321287,-0.0021305084228515625,0.0,0.0021305084228515625,104
2020-12-22 17:07:38.145,0.924189567565918,2.2649831771850586,9.534001350402832,0.0,0.0,0.0010652542114257812,104
2020-12-22 17:07:38.245,0.9445409774780272,2.2123088836669917,9.536396026611328,0.010652542114257812,-0.004261016845703125,0.0021305084228515625,104
2020-12-22 17:07:38.345,0.9529209136962892,2.22308349609375,9.561535835266113,0.006391525268554688,-0.003195762634277344,0.003195762634277344,104
2020-12-22 17:07:38.445,0.9301748275756836,2.1907606124877934,9.52442455291748,0.0021305084228515625,-0.005326271057128906,-0.0021305084228515625,104
2020-12-22 17:07:38.545,0.9553155899047852,2.2470264434814453,9.535198211669922,-0.007456779479980469,-0.0021305084228515625,-0.0010652542114257812,104
2020-12-22 17:07:38.645,0.9648923873901368,2.2578001022338867,9.51604461669922,0.004261016845703125,-0.0021305084228515625,0.0,104
2020-12-22 17:07:38.745,0.9457378387451172,2.242238044738769,9.511256217956543,0.011717796325683594,0.0,0.003195762634277344,104
2020-12-22 17:07:38.845,0.9457378387451172,2.317657470703125,9.48611545562744,0.012783050537109377,-0.007456779479980469,-0.00852203369140625,104
2020-12-22 17:07:38.945,0.9373579025268556,2.2362518310546875,9.562732696533203,0.014913558959960938,-0.0010652542114257812,0.0,104
2020-12-22 17:07:39.045,0.9589061737060548,2.2745609283447266,9.499284744262695,0.011717796325683594,-0.013848304748535156,0.0,104
2020-12-22 17:07:39.145,0.9397525787353516,2.253011703491211,9.50287628173828,-0.02982807159423828,0.007456779479980469,0.003195762634277344,104
2020-12-22 17:07:39.245,0.9648923873901368,2.3356142044067383,9.512453079223633,0.009587287902832031,0.0,0.0010652542114257812,104
2020-12-22 17:07:39.345,0.979257583618164,2.3631486892700195,9.47653865814209,0.009587287902832031,0.004261016845703125,-0.0021305084228515625,104
2020-12-22 17:07:39.445,0.922992706298828,2.324840545654297,9.45618724822998,0.01597881317138672,0.0,-0.005326271057128906,104
2020-12-22 17:07:39.545,0.8571500778198242,2.094989776611328,9.530409812927246,0.0170440673828125,0.003195762634277344,-0.003195762634277344,104
2020-12-22 17:07:39.645,0.9529209136962892,2.29132080078125,9.511256217956543,-0.0021305084228515625,0.019174575805664062,-0.010652542114257812,104
2020-12-22 17:07:39.745,0.9409494400024414,2.349980354309082,9.537592887878418,-0.0021305084228515625,-0.0010652542114257812,-0.0021305084228515625,104
2020-12-22 17:07:39.845,0.9601039886474608,2.347585678100586,9.475341796875,0.013848304748535156,-0.006391525268554688,0.0,104
2020-12-22 17:07:39.945,0.9337663650512696,2.32364273071289,9.483721733093262,-0.013848304748535156,0.0,0.0010652542114257812,104
2020-12-22 17:07:40.045,0.9337663650512696,2.32364273071289,9.483721733093262,-0.013848304748535156,0.0,0.0010652542114257812,104
2020-12-22 17:07:40.145,0.9337663650512696,2.32364273071289,9.483721733093262,-0.013848304748535156,0.0,0.0010652542114257812,104
2020-12-22 17:07:40.245,0.9337663650512696,2.32364273071289,9.483721733093262,-0.013848304748535156,0.0,0.0010652542114257812,104
2020-12-22 17:07:40.345,0.9337663650512696,2.32364273071289,9.483721733093262,-0.013848304748535156,0.0,0.0010652542114257812,104
2020-12-22 17:07:40.445,0.9373579025268556,2.3044891357421875,9.508861541748047,-0.013848304748535156,0.0,0.0010652542114257812,104
2020-12-22 17:07:40.545,0.921794891357422,2.3320226669311523,9.51604461669922,-0.011717796325683594,-0.003195762634277344,0.0010652542114257812,104
2020-12-22 17:07:40.645,0.9325695037841796,2.3703317642211914,9.523226737976074,0.0021305084228515625,0.004261016845703125,0.005326271057128906,104
2020-12-22 17:07:40.745,0.9577093124389648,2.382303237915039,9.49449634552002,0.004261016845703125,0.0010652542114257812,0.00852203369140625,104
2020-12-22 17:07:40.845,0.9313726425170898,2.3451919555664062,9.500481605529783,-0.005326271057128906,-0.003195762634277344,0.0010652542114257812,104
2020-12-22 17:07:40.945,0.9457378387451172,2.310474395751953,9.50646686553955,-0.006391525268554688,-0.004261016845703125,0.0,104
2020-12-22 17:07:41.045,0.9517240524291992,2.3332204818725586,9.481327056884766,-0.0021305084228515625,-0.0021305084228515625,0.003195762634277344,104
2020-12-22 17:07:41.145,0.9624977111816406,2.322445869445801,9.505270004272461,0.0021305084228515625,-0.004261016845703125,0.0010652542114257812,104
2020-12-22 17:07:41.245,0.9313726425170898,2.3547687530517583,9.511256217956543,-0.013848304748535156,-0.0021305084228515625,-0.0010652542114257812,104
2020-12-22 17:07:41.345,0.9529209136962892,2.3332204818725586,9.498086929321287,-0.0021305084228515625,0.0010652542114257812,0.0,104
2020-12-22 17:07:41.445,0.979257583618164,2.3523740768432617,9.518438339233398,0.010652542114257812,-0.004261016845703125,-0.0010652542114257812,104
2020-12-22 17:07:41.545,0.9684839248657228,2.288926124572754,9.517241477966307,-0.00852203369140625,0.0,0.0,104
2020-12-22 17:07:41.645,0.9517240524291992,2.29132080078125,9.531606674194336,-0.02769756317138672,0.007456779479980469,0.0021305084228515625,104
2020-12-22 17:07:41.745,0.9624977111816406,2.285334587097168,9.48611545562744,-0.014913558959960938,0.0,-0.0021305084228515625,104
2020-12-22 17:07:41.845,0.9385547637939452,2.2542095184326167,9.519636154174805,-0.0010652542114257812,0.0,0.0021305084228515625,104
2020-12-22 17:07:41.945,0.9385547637939452,2.251814842224121,9.536396026611328,0.007456779479980469,0.0,0.0,104
2020-12-22 17:07:42.045,0.9768638610839844,2.251814842224121,9.518438339233398,0.007456779479980469,0.007456779479980469,0.0021305084228515625,104
2020-12-22 17:07:42.145,0.9361610412597656,2.2601947784423833,9.541184425354004,-0.0010652542114257812,0.0,0.0,104
2020-12-22 17:07:42.245,0.926584243774414,2.238646507263184,9.4968900680542,-0.004261016845703125,0.0,0.003195762634277344,104
2020-12-22 17:07:42.345,0.9517240524291992,2.219491958618164,9.542381286621094,-0.01597881317138672,0.006391525268554688,0.003195762634277344,104
2020-12-22 17:07:42.445,0.9672861099243164,2.2613916397094727,9.47414493560791,-0.007456779479980469,0.0,0.0010652542114257812,104
2020-12-22 17:07:42.545,0.9385547637939452,2.3380088806152344,9.505270004272461,0.0021305084228515625,0.0,0.0021305084228515625,104
2020-12-22 17:07:42.645,0.950526237487793,2.297306060791016,9.510058403015137,0.014913558959960938,-0.00852203369140625,-0.003195762634277344,104
2020-12-22 17:07:42.745,0.9361610412597656,2.2709693908691406,9.505270004272461,0.0021305084228515625,-0.003195762634277344,-0.006391525268554688,104
2020-12-22 17:07:42.845,0.9541177749633788,2.2829408645629883,9.548367500305176,-0.004261016845703125,0.0,-0.0010652542114257812,104
2020-12-22 17:07:42.945,0.950526237487793,2.2937145233154297,9.510058403015137,0.005326271057128906,0.0010652542114257812,0.0010652542114257812,104
2020-12-22 17:07:43.045,0.9074296951293944,2.1644239425659184,9.510058403015137,0.0021305084228515625,0.005326271057128906,0.0,104
2020-12-22 17:07:43.145,0.9122180938720704,2.308080673217773,9.398724555969238,-0.031958580017089844,0.02237033843994141,0.0,104
2020-12-22 17:07:43.245,1.0654516220092771,2.2757577896118164,9.413090705871582,0.023435592651367188,-0.006391525268554688,-0.011717796325683594,104
2020-12-22 17:07:43.345,0.8727130889892578,2.2697715759277344,9.433442115783693,-0.011717796325683594,-0.012783050537109377,0.02982807159423828,104
2020-12-22 17:07:43.445,0.8547554016113281,2.2613916397094727,9.580689430236816,0.04367637634277344,0.026632308959960938,-0.0021305084228515625,104
2020-12-22 17:07:43.545,0.8008842468261719,2.2506179809570312,9.423864364624023,-0.019174575805664062,0.02556705474853516,-0.007456779479980469,104
2020-12-22 17:07:43.645,0.9289779663085938,2.4325828552246094,9.377176284790039,0.0809621810913086,-0.033023834228515625,-0.006391525268554688,104
2020-12-22 17:07:43.745,0.8595438003540039,2.1871690750122066,9.294573783874512,-0.042611122131347656,0.006391525268554688,-0.023435592651367188,104
2020-12-22 17:07:43.845,0.7398300170898438,1.856760025024414,9.68603801727295,-0.11185550689697266,0.05113410949707031,0.013848304748535156,104
2020-12-22 17:07:43.945,0.74102783203125,1.8795051574707031,9.621392250061037,-0.1608591079711914,0.04900360107421875,-0.013848304748535156,104
2020-12-22 17:07:44.045,0.8906698226928711,1.8112688064575195,9.381964683532717,-0.012783050537109377,-0.02769756317138672,0.010652542114257812,104
2020-12-22 17:07:44.145,0.8140525817871094,2.0626668930053706,10.088275909423828,0.05539512634277344,-0.1033334732055664,-0.00852203369140625,104
2020-12-22 17:07:44.245,0.5099802017211914,1.2186851501464844,9.296968460083008,0.011717796325683594,0.16831684112548828,-0.03835010528564453,104
2020-12-22 17:07:44.345,0.8691215515136719,2.061470031738281,9.519636154174805,-0.25140953063964844,0.006391525268554688,0.07350540161132812,104
2020-12-22 17:07:44.445,0.4728689193725586,1.6340923309326172,10.307352066040039,0.06391716003417969,0.0010652542114257812,-0.007456779479980469,104
2020-12-22 17:07:44.545,0.8236303329467773,2.5463104248046875,9.039584159851074,-0.05113410949707031,0.06391716003417969,0.01597881317138672,104
2020-12-22 17:07:44.645,0.7122964859008789,1.5526866912841797,9.844059944152832,0.07563591003417969,-0.030893325805664062,-0.02450180053710937,104
2020-12-22 17:07:44.745,0.5602598190307617,2.5451135635375977,9.368796348571776,-0.012783050537109377,-0.005326271057128906,-0.20027542114257807,104
2020-12-22 17:07:44.845,0.6261024475097656,1.6724004745483398,9.578295707702637,-0.12890052795410156,-0.08735370635986328,-0.01597881317138672,104
2020-12-22 17:07:44.945,0.705113410949707,1.8723220825195312,9.543578147888184,-0.05113410949707031,0.11931324005126953,-0.026632308959960938,104
2020-12-22 17:07:45.045,0.6895503997802734,2.0937929153442383,9.69322109222412,0.02769756317138672,-0.056460380554199226,0.07350540161132812,104
2020-12-22 17:07:45.145,0.8499670028686523,1.9453477859497068,9.790188789367676,-0.0170440673828125,-0.003195762634277344,0.1374225616455078,104
2020-12-22 17:07:45.245,0.6440591812133789,1.6089525222778318,9.783005714416504,-0.023435592651367188,-0.00852203369140625,-0.00852203369140625,104
2020-12-22 17:07:45.345,0.8499670028686523,1.526350021362305,9.49449634552002,-0.04793834686279297,0.011717796325683594,-0.08415794372558594,104
2020-12-22 17:07:45.445,0.5135717391967773,1.7801427841186523,9.947013854980467,-0.03835010528564453,0.0,-0.11718177795410155,104
2020-12-22 17:07:45.545,0.8044757843017578,1.6113462448120115,8.960572242736816,-0.0809621810913086,0.05006885528564453,-0.1097249984741211,104
2020-12-22 17:07:45.645,0.5722312927246094,1.980064392089844,10.002081871032717,-0.20560169219970706,-0.08948421478271484,0.07030868530273438,104
2020-12-22 17:07:45.745,0.8248271942138672,1.6293039321899414,9.452595710754396,-0.013848304748535156,0.09907245635986328,-0.13422679901123047,104
2020-12-22 17:07:45.845,0.8056726455688477,1.7585945129394531,9.54597282409668,-0.026632308959960938,0.006391525268554688,0.07670116424560547,104
2020-12-22 17:07:45.945,0.8104610443115234,1.9273910522460935,9.866806030273438,0.03621959686279297,0.07670116424560547,-0.030893325805664062,104
2020-12-22 17:07:46.045,0.8104610443115234,1.9273910522460935,9.866806030273438,0.03621959686279297,0.07670116424560547,-0.030893325805664062,104
2020-12-22 17:07:46.145,0.8104610443115234,1.9273910522460935,9.866806030273438,0.03621959686279297,0.07670116424560547,-0.030893325805664062,104
2020-12-22 17:07:46.245,0.8104610443115234,1.9273910522460935,9.866806030273438,0.03621959686279297,0.07670116424560547,-0.030893325805664062,104
2020-12-22 17:07:46.345,0.8104610443115234,1.9273910522460935,9.866806030273438,0.03621959686279297,0.07670116424560547,-0.030893325805664062,104
2020-12-22 17:07:46.445,0.8104610443115234,1.6245145797729492,9.741106033325195,0.03621959686279297,0.07670116424560547,-0.030893325805664062,104
2020-12-22 17:07:46.545,0.8691215515136719,1.6688089370727541,9.63575839996338,-0.061786651611328125,0.042611122131347656,0.058590888977050774,104
2020-12-22 17:07:46.645,0.8200387954711914,1.8340139389038088,9.561535835266113,0.033023834228515625,0.003195762634277344,0.10013771057128906,104
2020-12-22 17:07:46.745,0.6703968048095703,1.6448659896850586,9.707586288452148,0.005326271057128906,0.0,0.007456779479980469,104
2020-12-22 17:07:46.845,0.7721529006958008,1.7633829116821291,9.636955261230467,-0.026632308959960938,0.0010652542114257812,0.004261016845703125,104
2020-12-22 17:07:46.945,0.6644105911254883,1.6436691284179688,9.537592887878418,-0.0021305084228515625,-0.0021305084228515625,-0.019174575805664062,104
2020-12-22 17:07:47.045,0.7960958480834961,1.7633829116821291,9.748289108276367,-0.019174575805664062,0.01597881317138672,0.0021305084228515625,104
2020-12-22 17:07:47.145,0.8547554016113281,1.7538061141967771,9.566324234008787,0.052199363708496094,-0.006391525268554688,0.0287628173828125,104
2020-12-22 17:07:47.245,0.7194786071777344,1.8591537475585935,9.618998527526855,0.056460380554199226,-0.004261016845703125,0.057525634765625,104
2020-12-22 17:07:47.345,0.8332071304321289,1.8244371414184568,9.59625244140625,0.023435592651367188,0.005326271057128906,0.010652542114257812,104
2020-12-22 17:07:47.445,0.8320102691650391,1.8783082962036133,9.640546798706056,0.03728485107421875,0.012783050537109377,0.030893325805664062,104
2020-12-22 17:07:47.545,0.610539436340332,1.9992189407348635,9.791385650634766,-0.030893325805664062,0.05539512634277344,-0.02769756317138672,104
2020-12-22 17:07:47.645,0.7158880233764648,1.9202079772949217,9.682446479797363,-0.031958580017089844,0.013848304748535156,-0.031958580017089844,104
2020-12-22 17:07:47.745,0.8679237365722656,1.6831750869750977,9.308939933776855,-0.040480613708496094,-0.0021305084228515625,-0.10759449005126953,104
2020-12-22 17:07:47.845,0.6237077713012695,1.3826932907104492,8.848041534423828,-0.042611122131347656,-0.06604766845703125,0.040480613708496094,104
